time,seconds_elapsed,z,y,x
1659026345994135800,0.0321357421875,0,0,0
1659026346003806200,0.04180615234375,-0.0071773529052734375,0.002948284149169922,-0.0006119636818766594
1659026346013476600,0.0514765625,0.022333145141601562,-0.009978502988815308,-0.005153521429747343
1659026346023146800,0.061146728515625,0.02033710479736328,-0.02087751030921936,-0.011041097342967987
1659026346032817200,0.070817138671875,0.002864837646484375,-0.009839028120040894,-0.012658707797527313
1659026346042487600,0.080487548828125,-0.0006084442138671875,-0.004065424203872681,-0.01061771810054779
1659026346052158000,0.090157958984375,-0.04154205322265625,-0.006535261869430542,0.011411888524889946
1659026346061828400,0.099828369140625,-0.004946708679199219,-0.004569202661514282,0.006848576478660107
1659026346071498500,0.10949853515625,-0.025665283203125,-0.016847848892211914,-0.009886427782475948
1659026346081169000,0.1191689453125,0.02750873565673828,-0.018392324447631836,-0.009969868697226048
1659026346090839300,0.12883935546875,-0.0021877288818359375,-0.020964592695236206,-0.008079669438302517
1659026346100509700,0.138509765625,0.0023822784423828125,0.0016210675239562988,-0.004139662720263004
1659026346110180000,0.14818017578125,-0.0033254623413085938,-0.006153076887130737,0.016036532819271088
1659026346119850500,0.1578505859375,-0.018640518188476562,0.01200905442237854,0.0027274261228740215
1659026346129521000,0.16752099609375,-0.011812210083007812,-0.0033338963985443115,-0.009599445387721062
1659026346139191000,0.17719091796875,0.024814605712890625,0.008173316717147827,-0.0011186175979673862
1659026346148861400,0.186861328125,0.0019598007202148438,0.005468815565109253,0.011363950558006763
1659026346158531800,0.19653173828125,0.04139232635498047,-0.016084253787994385,0.009579397737979889
1659026346168202200,0.2062021484375,-0.011795997619628906,0.0030629336833953857,0.017010780051350594
1659026346177872400,0.215872314453125,-0.0055255889892578125,-0.004990220069885254,0.016166899353265762
1659026346187542800,0.225542724609375,-0.016658782958984375,0.008976936340332031,0.024461528286337852
1659026346197213200,0.235213134765625,-0.027327537536621094,-0.01070636510848999,0.008451253175735474
1659026346206883600,0.244883544921875,-0.012408256530761719,-0.006751209497451782,0.010319612920284271
1659026346216554000,0.254553955078125,0.004158973693847656,-0.024786025285720825,0.009920572862029076
1659026346226224000,0.26422412109375,-0.004046440124511719,-0.013456463813781738,0.014122070744633675
1659026346235894500,0.27389453125,0.0007085800170898438,-0.003678947687149048,0.0008999919518828392
1659026346245565000,0.28356494140625,-0.0027761459350585938,0.0045788586139678955,-0.004807044751942158
1659026346255235300,0.2932353515625,-0.007290840148925781,0.002081245183944702,-0.004604227375239134
1659026346264905700,0.30290576171875,-0.012813568115234375,0.010040879249572754,-0.010134218260645866
1659026346274576000,0.312575927734375,0.009586334228515625,0.009735316038131714,-0.010893776081502438
1659026346284246500,0.32224658203125,0.020854949951171875,0.0036613643169403076,-0.020932350307703018
1659026346293916700,0.331916748046875,0.012087821960449219,0.00937122106552124,-0.006364040542393923
1659026346303587000,0.341587158203125,0.007080078125,0.00218355655670166,-0.008516285568475723
1659026346313257500,0.351257568359375,-0.0035848617553710938,-0.0046783387660980225,0.0033760061487555504
1659026346322927900,0.360927978515625,-0.0046482086181640625,0.004866659641265869,-0.018771415576338768
1659026346332598300,0.370598388671875,0.012928962707519531,-0.00922548770904541,-0.014755423180758953
1659026346342268400,0.380268310546875,0.019561767578125,-0.008946835994720459,-0.006234720349311829
1659026346351938800,0.389938720703125,0.005066871643066406,-0.0016925036907196045,-0.003738394007086754
1659026346361609200,0.399609130859375,0.009595870971679688,-0.0027009248733520508,-0.0025290120393037796
1659026346371279600,0.409279541015625,-0.009312629699707031,0.004507839679718018,-0.0105989258736372
1659026346380949800,0.41894970703125,-0.0032548904418945312,-0.0036304891109466553,0.009476689621806145
1659026346390620200,0.4286201171875,-0.007852554321289062,-0.003429889678955078,0.005723209120333195
1659026346400290600,0.43829052734375,-0.010004997253417969,0.008308649063110352,0.006761109922081232
1659026346409961000,0.4479609375,0.0089263916015625,0.00469815731048584,0.004301448818296194
1659026346419631400,0.45763134765625,0.007556915283203125,0.006962865591049194,-0.0004966623382642865
1659026346429301500,0.467301513671875,0.016752243041992188,0.022141069173812866,0.013588792644441128
1659026346438972200,0.47697216796875,-0.0058574676513671875,0.004276692867279053,0.00976178701967001
1659026346448642300,0.486642333984375,0.013006210327148438,-0.009784072637557983,0.015390819869935513
1659026346458312700,0.496312744140625,0.0021915435791015625,-0.0025229454040527344,0.0021606264635920525
1659026346467983000,0.505983154296875,-0.006060600280761719,0.006965279579162598,0.005665631499141455
1659026346477653500,0.515653564453125,-0.011804580688476562,-0.01668587327003479,0.0067307958379387856
1659026346487324000,0.525323974609375,-0.0068836212158203125,0.0012372136116027832,0.006634800229221582
1659026346496994000,0.534994140625,-0.052532196044921875,-0.0047109127044677734,-0.0017314383294433355
1659026346506664400,0.54466455078125,0.014196395874023438,-0.0045372843742370605,0.0017681545577943325
1659026346516334800,0.5543349609375,0.018640518188476562,-0.003392547369003296,-0.0018139436142519116
1659026346526005200,0.564005126953125,0.028882980346679688,-0.00805935263633728,-0.006536131724715233
1659026346535675400,0.57367529296875,0.021322250366210938,0.009771406650543213,-0.012325448915362358
1659026346545345800,0.583345703125,0.01977825164794922,0.007281005382537842,-0.012109629809856415
1659026346555016200,0.59301611328125,0.005328178405761719,0.011891722679138184,-0.004900262225419283
1659026346564686600,0.6026865234375,-0.0029954910278320312,0.009341716766357422,-0.004868627525866032
1659026346574357000,0.61235693359375,0.0017538070678710938,-0.02120235562324524,0.013978767208755016
1659026346584027100,0.622027099609375,-0.017104148864746094,-0.11953088641166687,0.16603562235832214
1659026346593697500,0.631697509765625,0.02435779571533203,-0.2375451624393463,0.28251731395721436
1659026346603368000,0.641367919921875,0.04395008087158203,-0.3006104826927185,0.37703490257263184
1659026346613038300,0.651038330078125,0.027919769287109375,-0.18841780722141266,0.28511789441108704
1659026346622708700,0.660708740234375,0.014512062072753906,-0.07817023992538452,0.10660208761692047
1659026346632379100,0.670379150390625,-0.04102134704589844,0.054716289043426514,-0.032078929245471954
1659026346642049500,0.680049560546875,-0.023860931396484375,0.05592668056488037,-0.03790201246738434
1659026346651719700,0.6897197265625,-0.014046669006347656,0.10186117887496948,-0.12121891975402832
1659026346661390000,0.69939013671875,-0.003215789794921875,0.11045709252357483,-0.14938175678253174
1659026346671060500,0.709060546875,0.00036907196044921875,0.08732753992080688,-0.14411775767803192
1659026346680731000,0.71873095703125,0.01565837860107422,0.16938704252243042,-0.25685590505599976
1659026346690401000,0.728401123046875,0.0012760162353515625,0.2184101939201355,-0.31043699383735657
1659026346700071400,0.738071533203125,-0.008166313171386719,0.1844671070575714,-0.2269601672887802
1659026346709741800,0.747741943359375,-0.008042335510253906,0.07823467254638672,-0.10284136235713959
1659026346719412200,0.757412109375,-0.011453628540039062,0.0186215341091156,-0.00546573381870985
1659026346729082600,0.76708251953125,0.0051860809326171875,-0.12806196510791779,0.18174690008163452
1659026346738752800,0.776752685546875,0.029787063598632812,-0.07471397519111633,0.07632897049188614
1659026346748423200,0.786423095703125,-0.0036802291870117188,0.054498761892318726,-0.06104972958564758
1659026346758093600,0.796093505859375,-0.010699272155761719,0.04021158814430237,-0.026607012376189232
1659026346767764000,0.805763916015625,-0.004662513732910156,0.08030965924263,-0.085818812251091
1659026346777434400,0.815434326171875,-0.017548561096191406,0.09030026197433472,-0.09977686405181885
1659026346787104800,0.825104736328125,-0.029046058654785156,-0.02684926986694336,0.03280777856707573
1659026346796775000,0.83477490234375,0.05142688751220703,-0.017796188592910767,0.003218552563339472
1659026346806445300,0.8444453125,-0.012963294982910156,-0.043268561363220215,0.05324918031692505
1659026346816115700,0.85411572265625,0.022541046142578125,-0.009380221366882324,0.04942126199603081
1659026346825786000,0.8637861328125,-0.00608062744140625,-0.09124007821083069,0.08830138295888901
1659026346835456500,0.87345654296875,-0.0189208984375,0.006746888160705566,-0.0026961304247379303
1659026346845126700,0.883126708984375,-0.010365486145019531,0.11707949638366699,-0.1261114925146103
1659026346854797000,0.892797119140625,0.020399093627929688,0.1020459532737732,-0.12389165163040161
1659026346864467500,0.902467529296875,-0.0069942474365234375,-0.012765616178512573,0.009166616946458817
1659026346874137900,0.912137939453125,0.011949539184570312,-0.0009007751941680908,-0.015573188662528992
1659026346883808300,0.921808349609375,0.0046844482421875,-0.0006855130195617676,0.00455359136685729
1659026346893478400,0.931478515625,0.0022420883178710938,0.005579352378845215,-0.009089551866054535
1659026346903148800,0.941148681640625,0.002185821533203125,-0.013886481523513794,-0.005144486203789711
1659026346912819200,0.950819091796875,-0.008460044860839844,0.0035285353660583496,-0.012212265282869339
1659026346922489600,0.960489501953125,0.011660575866699219,0.05127120018005371,-0.0511954240500927
1659026346932160000,0.970159912109375,-0.0050106048583984375,0.03767889738082886,-0.04003121331334114
1659026346941830100,0.979830078125,-0.021364212036132812,0.039476603269577026,-0.06392872333526611
1659026346951500500,0.98950048828125,-0.03154945373535156,0.10905271768569946,-0.12159516662359238
1659026346961171000,0.9991708984375,0.02196979522705078,0.12090817093849182,-0.12888933718204498
1659026346970841300,1.00884130859375,-0.0018911361694335938,0.13080227375030518,-0.15559256076812744
1659026346980511700,1.01851171875,-0.02891063690185547,0.013114392757415771,-0.005074298940598965
1659026346990182100,1.02818212890625,0.02803516387939453,-0.12926965951919556,0.12907229363918304
1659026346999852300,1.037852294921875,0.03931236267089844,-0.1476706862449646,0.17892959713935852
1659026347009522700,1.047522705078125,0.011569023132324219,-0.14194615185260773,0.1603245586156845
1659026347019193000,1.057193115234375,0.02428722381591797,-0.16216972470283508,0.1701919138431549
1659026347028863500,1.066863525390625,-0.02319049835205078,-0.04015845060348511,0.05936180055141449
1659026347038534000,1.076533935546875,-0.02632904052734375,-0.011423379182815552,0.016196109354496002
1659026347048204000,1.0862041015625,-0.019989967346191406,-0.005918443202972412,0.018272358924150467
1659026347057874400,1.09587451171875,-0.0008192062377929688,0.0007565915584564209,0.01532534509897232
1659026347067544800,1.105544921875,0.01684284210205078,0.001893162727355957,0.00594682339578867
1659026347077215200,1.11521533203125,0.014201164245605469,-0.00023409724235534668,-0.0005158246494829655
1659026347086885400,1.124885498046875,-0.00016689300537109375,0.004960536956787109,-0.0025338544510304928
1659026347096555800,1.1345556640625,0.0045299530029296875,0.0076018571853637695,-0.013730011880397797
1659026347106226200,1.14422607421875,-0.0014257431030273438,0.01212531328201294,-0.008762654848396778
1659026347115896600,1.153896484375,0.013903617858886719,0.00796818733215332,-0.010140324011445045
1659026347125567000,1.16356689453125,0.012514114379882812,-0.005701988935470581,0.0006093410775065422
1659026347135237000,1.173237060546875,-0.0076808929443359375,-0.0025031566619873047,-0.018485337495803833
1659026347144907800,1.18290771484375,-0.008724212646484375,-0.0003064572811126709,-0.00248150248080492
1659026347154578000,1.192577880859375,0.0031833648681640625,0.01505085825920105,-0.007059115916490555
1659026347164248300,1.202248291015625,0.0007696151733398438,0.006793498992919922,0.000983325531706214
1659026347173918700,1.211918701171875,0.017215728759765625,0.0023738741874694824,-0.013631053268909454
1659026347183589000,1.221589111328125,0.015745162963867188,-0.004467278718948364,0.010851878672838211
1659026347193259300,1.23125927734375,0.006066322326660156,-0.01721900701522827,0.0012341118417680264
1659026347202929700,1.2409296875,-0.02579498291015625,-0.017073094844818115,-0.0032329533714801073
1659026347212600000,1.25060009765625,-0.03006267547607422,-0.01710030436515808,0.0054561058059334755
1659026347222270500,1.2602705078125,-0.016611099243164062,0.006402373313903809,-0.00011557596735656261
1659026347231940900,1.26994091796875,0.013075828552246094,0.00870668888092041,0.0010376903228461742
1659026347241611000,1.279611083984375,0.03872394561767578,0.00560230016708374,0.007287717889994383
1659026347251281400,1.289281494140625,0.042761802673339844,0.0050733983516693115,-0.0009712697938084602
1659026347260951800,1.298951904296875,0.020856857299804688,0.001972794532775879,0.017075959593057632
1659026347270622200,1.308622314453125,-0.014783859252929688,0.010176360607147217,0.025031719356775284
1659026347280292600,1.318292724609375,-0.03452014923095703,-0.008208215236663818,0.01605968177318573
1659026347289962800,1.327962646484375,-0.022161483764648438,0.007745921611785889,0.00519976019859314
1659026347299633400,1.33763330078125,0.017045021057128906,-0.009336292743682861,0.004740939009934664
1659026347309303600,1.347303466796875,0.022644996643066406,0.006029188632965088,0.0005336329340934753
1659026347318974000,1.356973876953125,0.02696990966796875,0.00018975138664245605,-0.009856640361249447
1659026347328644400,1.366644287109375,0.0053386688232421875,0.014476090669631958,-0.008481495082378387
1659026347338314800,1.376314697265625,-0.0006380081176757812,-0.004445284605026245,-0.011892936192452908
1659026347347985000,1.38598486328125,-0.01710224151611328,-0.0077856481075286865,-0.008358543738722801
1659026347357655300,1.3956552734375,-0.008588790893554688,-0.019134879112243652,-0.0074093397706747055
1659026347367325700,1.40532568359375,0.010364532470703125,-0.0066232383251190186,-0.009397072717547417
1659026347376996000,1.41499609375,0.019588470458984375,0.00223580002784729,-0.00449465261772275
1659026347386666500,1.42466650390625,0.00043392181396484375,0.008252769708633423,0.0034782891161739826
1659026347396336600,1.434336669921875,-0.021918296813964844,0.0019494295120239258,0.0075264847837388515
1659026347406007000,1.444007080078125,-0.008600234985351562,0.006254106760025024,-0.0013521132059395313
1659026347415677400,1.453677490234375,0.0009584426879882812,0.014301061630249023,0.019042767584323883
1659026347425347800,1.463347900390625,0.0091705322265625,0.002498328685760498,0.008083561435341835
1659026347435018200,1.473018310546875,0.014889717102050781,0.0016228854656219482,0.001728355884552002
1659026347444688400,1.4826884765625,0.006400108337402344,0.0006197094917297363,0.010830966755747795
1659026347454358800,1.49235888671875,-0.004298210144042969,-0.006334483623504639,0.019925879314541817
1659026347464029200,1.502029296875,-0.026582717895507812,0.004417449235916138,0.004075339064002037
1659026347473699600,1.511699462890625,-0.016732215881347656,0.000986248254776001,0.00608088867738843
1659026347483369700,1.52136962890625,-0.017633438110351562,0.005762219429016113,0.004637414589524269
1659026347493040400,1.531040283203125,-0.010277748107910156,-0.002653360366821289,0.0011228621006011963
1659026347502710500,1.54071044921875,-0.0030422210693359375,-0.008661061525344849,0.007191586773842573
1659026347512381000,1.550380859375,-0.0006361007690429688,0.0031353533267974854,0.008450671099126339
1659026347522051300,1.56005126953125,0.0017328262329101562,0.0005606412887573242,0.006159358192235231
1659026347531721700,1.5697216796875,0.005236625671386719,0.008673936128616333,-0.007943830452859402
1659026347541392100,1.57939208984375,-0.011317253112792969,0.001357942819595337,0.008692675270140171
1659026347551062300,1.589062255859375,-0.0028963088989257812,-0.0032840967178344727,0.00034688273444771767
1659026347560732700,1.598732666015625,0.006562232971191406,-0.0126115083694458,-0.011505641043186188
1659026347570403000,1.608403076171875,0.011157035827636719,0.005303770303726196,-0.013859177008271217
1659026347580073500,1.618073486328125,-0.004323005676269531,0.009922385215759277,-0.0006526270881295204
1659026347589743600,1.62774365234375,0.0028085708618164062,0.0003179013729095459,-0.002930987626314163
1659026347599414000,1.6374140625,-0.0031194686889648438,0.00616765022277832,-0.009935031644999981
1659026347609084400,1.64708447265625,-0.0018901824951171875,0.011919945478439331,-0.002591756172478199
1659026347618754800,1.6567548828125,-0.0006809234619140625,-0.0012756288051605225,0.007038105744868517
1659026347628425200,1.66642529296875,0.0005140304565429688,0.0008721053600311279,0.004802275449037552
1659026347638095400,1.676095458984375,-0.011254310607910156,0.004188954830169678,0.006076223682612181
1659026347647766000,1.68576611328125,-0.012238502502441406,-0.01602199673652649,0.00007008714601397514
1659026347657436200,1.695436279296875,0.012668609619140625,0.0043315887451171875,-0.0035416511818766594
1659026347667106600,1.7051064453125,0.005397796630859375,0.001936107873916626,0.016377579420804977
1659026347676777000,1.71477685546875,0.030012130737304688,-0.005068540573120117,0.0012851310893893242
1659026347686447400,1.724447265625,0.03655815124511719,-0.0010274648666381836,0.017379779368638992
1659026347696117500,1.734117431640625,0.019454002380371094,-0.02010023593902588,0.03687390685081482
1659026347705788000,1.743787841796875,0.01438140869140625,0.05827176570892334,-0.05920381844043732
1659026347715458300,1.753458251953125,0.047023773193359375,0.06414496898651123,-0.0587216317653656
1659026347725128700,1.763128662109375,0.0109100341796875,0.09624698758125305,-0.09167352318763733
1659026347734799000,1.772799072265625,-0.039856910705566406,0.2746475040912628,-0.3056524395942688
1659026347744469200,1.78246923828125,-0.04388141632080078,0.5413447618484497,-0.6239421367645264
1659026347754139600,1.7921396484375,0.06510353088378906,0.3741653263568878,-0.5023452639579773
1659026347763810000,1.80181005859375,0.049922943115234375,-0.005626469850540161,-0.13539676368236542
1659026347773480400,1.81148046875,0.012635231018066406,-0.10708913207054138,0.001859697513282299
1659026347783150800,1.82115087890625,0.010092735290527344,0.06719344854354858,-0.10192505270242691
1659026347792821000,1.830821044921875,0.09819316864013672,0.144309401512146,-0.08856762945652008
1659026347802491400,1.840491455078125,-0.006927490234375,0.039941489696502686,0.053057461977005005
1659026347812161800,1.850161865234375,-0.062042236328125,-0.1822553426027298,0.2183554619550705
1659026347821832200,1.859832275390625,-0.1549968719482422,-0.11383968591690063,0.05620427802205086
1659026347831502600,1.869502685546875,-0.11936473846435547,0.09479445219039917,-0.25046488642692566
1659026347841173000,1.879173095703125,-0.11617469787597656,-0.09962823987007141,-0.11448928713798523
1659026347850843100,1.888843017578125,0.08458328247070312,-0.3791521489620209,0.2339164912700653
1659026347860513500,1.898513427734375,0.10434627532958984,-0.4762139916419983,0.5786272883415222
1659026347870184000,1.908183837890625,0.15440654754638672,-0.415995329618454,0.6074986457824707
1659026347879854300,1.917854248046875,0.13423538208007812,-0.20962917804718018,0.453337699174881
1659026347889524700,1.927524658203125,0.040259361267089844,0.0335049033164978,0.21772629022598267
1659026347899195000,1.93719482421875,-0.02863311767578125,0.052302539348602295,-0.006230957806110382
1659026347908865300,1.946865234375,0.029504776000976562,0.09945374727249146,-0.22345802187919617
1659026347918535700,1.95653564453125,-0.006274223327636719,0.0663263201713562,-0.25043976306915283
1659026347928206000,1.9662060546875,0.022052764892578125,-0.13686159253120422,0.07156720757484436
1659026347937876500,1.97587646484375,-0.0347900390625,-0.3510589897632599,0.5612479448318481
1659026347947546600,1.985546630859375,-0.00946807861328125,-0.34166187047958374,0.24828557670116425
1659026347957217000,1.995217041015625,0.0531158447265625,-0.026314139366149902,-0.00030519068241119385
1659026347966887400,2.004887451171875,-0.06771564483642578,-0.02833142876625061,0.010511532425880432
1659026347976557800,2.014557861328125,-0.02417469024658203,0.012345641851425171,0.04873122274875641
1659026347986228000,2.02422802734375,0.2222118377685547,-0.10607746243476868,0.16106796264648438
1659026347995898400,2.0338984375,0.2198495864868164,-0.07576747238636017,0.025684773921966553
1659026348005568800,2.04356884765625,0.10583686828613281,0.06162571907043457,-0.2144097536802292
1659026348015239200,2.0532392578125,0.25030517578125,0.061941057443618774,-0.4623560309410095
1659026348024909600,2.06290966796875,0.3902463912963867,-0.3105284571647644,-0.03148677945137024
1659026348034580000,2.072580078125,1.1307964324951172,-0.014401257038116455,-0.1508733630180359
1659026348044250400,2.08225048828125,1.1939325332641602,0.10356494784355164,-0.10036736726760864
1659026348053920500,2.09192041015625,0.8382272720336914,-0.09370522201061249,0.1216825544834137
1659026348063591000,2.1015908203125,1.0724716186523438,-0.5312594771385193,0.15259438753128052
1659026348073261300,2.11126123046875,1.3004255294799805,-0.8259744644165039,0.13246577978134155
1659026348082931700,2.120931640625,0.7727518081665039,-0.9129401445388794,0.1391613483428955
1659026348092601900,2.130601806640625,-0.2154083251953125,-0.8817122578620911,0.023959755897521973
1659026348102272300,2.140272216796875,-1.1059045791625977,-0.5118623375892639,-0.0382462739944458
1659026348111942700,2.149942626953125,-1.1644525527954102,0.23696202039718628,-0.0024650096893310547
1659026348121613000,2.159613037109375,-0.9257965087890625,1.0274766683578491,-0.10587811470031738
1659026348131283500,2.169283447265625,-0.5349111557006836,1.3009580373764038,-0.3952903747558594
1659026348140953600,2.17895361328125,-0.4143695831298828,0.9774724245071411,-0.46902501583099365
1659026348150624000,2.1886240234375,-0.6047887802124023,0.4545832574367523,-0.372206449508667
1659026348160294400,2.19829443359375,-0.504429817199707,0.25723379850387573,-0.24972593784332275
1659026348169964800,2.20796484375,-0.7423276901245117,0.355512410402298,-0.3848046064376831
1659026348179635200,2.21763525390625,-0.4543418884277344,0.5685429573059082,-0.617895245552063
1659026348189305600,2.2273056640625,0.7297344207763672,-0.05792616307735443,-0.4203665256500244
1659026348198976000,2.23697607421875,0.25882434844970703,-0.557021975517273,-0.2372797727584839
1659026348208646100,2.246646240234375,-1.1574525833129883,-0.5068297386169434,-0.23756730556488037
1659026348218316500,2.256316650390625,0.6906747817993164,-0.5174354910850525,0.9536300897598267
1659026348227987000,2.265987060546875,1.7078580856323242,-1.7419662475585938,2.132920265197754
1659026348237657300,2.2756572265625,0.847172737121582,-1.7104278802871704,1.8060970306396484
1659026348247327500,2.285327392578125,0.24158191680908203,-0.6310386061668396,0.990341305732727
1659026348256998000,2.294997802734375,0.5655126571655273,0.8469096422195435,0.0600428581237793
1659026348266668300,2.304668212890625,0.01941204071044922,1.6118078231811523,-0.5651346445083618
1659026348276338700,2.314338623046875,-0.07704544067382812,1.4293829202651978,-0.9382548332214355
1659026348286009000,2.324009033203125,-0.5607442855834961,1.0837688446044922,-1.2436408996582031
1659026348295679200,2.33367919921875,-1.5192937850952148,0.8906000852584839,-1.277611494064331
1659026348305349600,2.343349609375,-0.6337032318115234,1.283362627029419,-1.3191438913345337
1659026348315020000,2.35302001953125,-0.8584213256835938,0.8435096144676208,-1.3721261024475098
1659026348324690400,2.3626904296875,-0.7288331985473633,0.11172938346862793,-1.1810532808303833
1659026348334360800,2.37236083984375,-1.4983348846435547,0.5076532363891602,-0.4270179271697998
1659026348344031000,2.382031005859375,-0.3540945053100586,0.8730291724205017,-0.38766610622406006
1659026348353701400,2.391701416015625,0.5249643325805664,0.7296083569526672,-0.07321709394454956
1659026348363371800,2.401371826171875,0.5165586471557617,0.24908754229545593,0.6447133421897888
1659026348373042200,2.411042236328125,0.6762371063232422,-0.0010307133197784424,0.7426647543907166
1659026348382712600,2.420712646484375,2.4996776580810547,-0.28455495834350586,1.3091192245483398
1659026348392383000,2.430383056640625,3.1457948684692383,-0.971988320350647,2.294700860977173
1659026348402053000,2.44005322265625,0.3800630569458008,-1.4329725503921509,2.5367777347564697
1659026348411723500,2.4497236328125,-1.047210693359375,-1.0653157234191895,1.7207765579223633
1659026348421394000,2.459393798828125,-1.1427202224731445,0.16667532920837402,0.4193626046180725
1659026348431064300,2.469064208984375,-1.1289176940917969,1.1201539039611816,-1.2733410596847534
1659026348440734700,2.478734619140625,-1.0297088623046875,1.7599773406982422,-1.8624374866485596
1659026348450404900,2.48840478515625,-0.7620925903320312,1.9549040794372559,-1.6883013248443604
1659026348460075300,2.4980751953125,-0.5332612991333008,1.2202820777893066,-0.9949015378952026
1659026348469745700,2.50774560546875,-0.2370290756225586,0.6199917793273926,0.19426125288009644
1659026348479416000,2.517416015625,-0.8928089141845703,-0.08998602628707886,0.5130075812339783
1659026348489086500,2.52708642578125,-1.1756353378295898,-0.41353487968444824,0.8441352248191833
1659026348498756600,2.536756591796875,-1.3426122665405273,-0.5780165195465088,0.918398916721344
1659026348508427000,2.546427001953125,-1.66131591796875,-0.6804139018058777,0.6728312969207764
1659026348518097400,2.556097412109375,-1.9987468719482422,-0.6737781763076782,0.37305355072021484
1659026348527767800,2.565767822265625,-2.1112680435180664,-0.6422207951545715,0.34273287653923035
1659026348537438200,2.575438232421875,-1.748185157775879,-0.5464003086090088,0.4379310607910156
1659026348547108600,2.585108642578125,-0.3257455825805664,-0.6690869927406311,0.1793057918548584
1659026348556778800,2.59477880859375,1.67523193359375,-0.5790281295776367,-0.5597231388092041
1659026348566449200,2.60444921875,1.6432685852050781,0.09391909837722778,-1.2787365913391113
1659026348576119600,2.61411962890625,1.0881690979003906,0.577703058719635,-0.9531596302986145
1659026348585790000,2.6237900390625,1.0162067413330078,0.6266921162605286,-0.024127542972564697
1659026348595460400,2.63346044921875,0.8946304321289062,0.4034184217453003,0.6498211622238159
1659026348605130500,2.643130615234375,0.21834468841552734,-0.016211271286010742,0.6481974720954895
1659026348614801000,2.65280078125,-0.5711603164672852,-0.45400866866111755,0.3758409917354584
1659026348624471300,2.66247119140625,-0.8161725997924805,-0.7786149978637695,0.14527654647827148
1659026348634141700,2.6721416015625,-0.35235023498535156,-0.8233288526535034,-0.03344652056694031
1659026348643810600,2.681810546875,0.14084815979003906,-0.4891800880432129,-0.29127824306488037
1659026348653480700,2.691480712890625,0.04393768310546875,-0.04362866282463074,-0.6646338701248169
1659026348663151000,2.701151123046875,0.0494232177734375,0.20454615354537964,-0.7564137578010559
1659026348672821500,2.710821533203125,0.0949869155883789,0.2357388436794281,-0.4560099244117737
1659026348682492000,2.720491943359375,-0.2867422103881836,0.5848385095596313,0.13239996135234833
1659026348692162000,2.730162109375,-0.8308067321777344,0.44467732310295105,0.27814123034477234
1659026348701832700,2.739832763671875,-0.9380292892456055,0.08578643202781677,0.4968206584453583
1659026348711502800,2.7495029296875,-0.7578859329223633,-0.2787907123565674,0.511347234249115
1659026348721173200,2.75917333984375,-0.06698894500732422,-0.5600765347480774,0.3110802471637726
1659026348730843600,2.76884375,0.8571920394897461,-0.4799841642379761,-0.21495047211647034
1659026348740514000,2.77851416015625,1.6660890579223633,-0.09857657551765442,-0.7820674180984497
1659026348750184400,2.788184326171875,1.2497358322143555,0.4481390416622162,-1.1297943592071533
1659026348759854600,2.7978544921875,0.27882862091064453,0.27238479256629944,0.33183765411376953
1659026348769525000,2.80752490234375,-0.4807243347167969,0.07224950194358826,-0.24516808986663818
1659026348779195400,2.8171953125,-1.1141910552978516,-0.0158005952835083,-0.47849220037460327
1659026348788865800,2.82686572265625,-0.6613426208496094,0.07370677590370178,0.11124648153781891
1659026348798536000,2.836535888671875,0.19571685791015625,0.2668609917163849,0.35414791107177734
1659026348808206300,2.846206298828125,0.9301595687866211,0.40079277753829956,0.18646347522735596
1659026348817876700,2.855876708984375,1.144826889038086,0.48920148611068726,-0.17426030337810516
1659026348827547100,2.865547119140625,0.7110929489135742,0.5390345454216003,-0.5863343477249146
1659026348837217500,2.875217529296875,0.13711071014404297,0.381462037563324,-0.6847354769706726
1659026348846887700,2.8848876953125,-0.5144529342651367,0.20576810836791992,-0.48518991470336914
1659026348856558300,2.894558349609375,-0.5550823211669922,0.0023923367261886597,-0.30814725160598755
1659026348866228500,2.904228515625,-0.6446037292480469,-0.14450860023498535,-0.3846409320831299
1659026348875899000,2.91389892578125,-0.7811517715454102,-0.03528442606329918,-0.5242082476615906
1659026348885569300,2.9235693359375,0.354278564453125,0.2557979226112366,-0.76127690076828
1659026348895239700,2.93323974609375,0.8730983734130859,0.5432490110397339,-0.6307661533355713
1659026348904910000,2.94291015625,1.2596197128295898,0.6495883464813232,-0.11196088790893555
1659026348914580200,2.952580322265625,1.6941194534301758,0.5803732872009277,0.13315439224243164
1659026348924250600,2.962250732421875,1.9817276000976562,0.5582919716835022,0.2659398317337036
1659026348933921000,2.971921142578125,2.5913705825805664,0.7167729139328003,0.3586907386779785
1659026348943591400,2.98159130859375,3.184218406677246,0.8001995086669922,0.30811262130737305
1659026348953261600,2.991261474609375,2.24462890625,0.3942139446735382,0.33122944831848145
1659026348962932000,3.000931884765625,0.7024316787719727,0.1581224501132965,0.6895594596862793
1659026348972602400,3.010602294921875,-0.4525136947631836,0.5002617835998535,0.5177009105682373
1659026348982272800,3.020272705078125,-0.5429000854492188,1.083050012588501,0.13970446586608887
1659026348991943200,3.029943115234375,0.3384714126586914,1.573578119277954,-0.25528669357299805
1659026349001613300,3.03961328125,1.5890111923217773,1.976333737373352,-0.6207244396209717
1659026349011283700,3.04928369140625,2.7845211029052734,2.0929806232452393,-0.8538191318511963
1659026349020954000,3.0589541015625,3.624164581298828,1.813185691833496,-0.6368072032928467
1659026349030624500,3.06862451171875,3.1402454376220703,1.0135372877120972,0.43094611167907715
1659026349040295000,3.078294921875,2.096970558166504,0.307173490524292,1.2892189025878906
1659026349049965300,3.08796533203125,1.2902641296386719,0.280144602060318,1.985654354095459
1659026349059635700,3.0976357421875,1.0294857025146484,0.7229035496711731,2.0538344383239746
1659026349069305900,3.107305908203125,1.028066635131836,1.274977445602417,1.3807365894317627
1659026349078976300,3.116976318359375,1.6143112182617188,1.8257222175598145,0.5043134689331055
1659026349088646700,3.126646728515625,2.475611686706543,2.1544556617736816,-0.19304490089416504
1659026349098317000,3.136317138671875,3.0857019424438477,2.1677298545837402,-0.6966365575790405
1659026349107987500,3.145987548828125,3.445344924926758,2.0010464191436768,-1.1908135414123535
1659026349117657600,3.15565771484375,3.1390457153320312,1.7420728206634521,-1.4487862586975098
1659026349127328000,3.165327880859375,2.250711441040039,1.327523946762085,-1.030348539352417
1659026349136998400,3.174998291015625,1.1557159423828125,0.8083181381225586,-0.29572415351867676
1659026349146668800,3.184668701171875,0.2357044219970703,0.4289815127849579,0.3592221736907959
1659026349156339000,3.1943388671875,-0.02798938751220703,0.5279268622398376,0.782745361328125
1659026349166009300,3.20400927734375,0.4493274688720703,0.8435009717941284,0.9512872695922852
1659026349175679700,3.2136796875,1.174271583557129,1.039502501487732,1.0002779960632324
1659026349185350100,3.22335009765625,1.7311925888061523,1.0010827779769897,0.924285888671875
1659026349195020500,3.2330205078125,2.211740493774414,0.7848955988883972,0.70108962059021
1659026349204691000,3.24269091796875,2.7032470703125,0.44815927743911743,0.32768940925598145
1659026349214361300,3.252361328125,3.0091419219970703,0.14126400649547577,0.0321582555770874
1659026349224031500,3.262031494140625,2.9260597229003906,-0.21865247189998627,-0.20433831214904785
1659026349233702000,3.271701904296875,2.38704776763916,-0.6604335308074951,-0.3522452116012573
1659026349243372300,3.281372314453125,1.6611385345458984,-0.9176506996154785,-0.30607426166534424
1659026349253042700,3.291042724609375,0.9257230758666992,-0.9823082685470581,-0.16487812995910645
1659026349262713000,3.300713134765625,0.18656444549560547,-0.9673482179641724,0.013756036758422852
1659026349272383200,3.31038330078125,-0.1512279510498047,-0.7346988320350647,0.26530909538269043
1659026349282053600,3.3200537109375,0.1576824188232422,-0.3751589357852936,0.3144981861114502
1659026349291724000,3.32972412109375,0.7581386566162109,-0.06504592299461365,0.21004974842071533
1659026349301394400,3.33939453125,1.2702226638793945,0.1035054624080658,0.06748843193054199
1659026349311064800,3.34906494140625,1.4720048904418945,0.07209169864654541,-0.05920875072479248
1659026349320735000,3.35873486328125,1.4628219604492188,-0.15041586756706238,-0.06805098056793213
1659026349330405400,3.3684052734375,1.3179445266723633,-0.427264541387558,-0.02690565586090088
1659026349340075800,3.37807568359375,1.1820058822631836,-0.747015118598938,-0.040506958961486816
1659026349349746200,3.38774609375,1.1110506057739258,-0.9797025918960571,-0.1297529935836792
1659026349359416300,3.397416259765625,0.9434442520141602,-1.173250675201416,-0.25483983755111694
1659026349369087000,3.4070869140625,0.9682302474975586,-1.2865381240844727,-0.3446184992790222
1659026349378757000,3.416757080078125,1.2295551300048828,-1.3634474277496338,-0.258209228515625
1659026349388427500,3.426427490234375,1.715688705444336,-1.3497858047485352,0.0024150609970092773
1659026349398098000,3.436097900390625,2.220296859741211,-1.3140314817428589,0.3041602373123169
1659026349407768300,3.445768310546875,2.568614959716797,-1.2342641353607178,0.6726406812667847
1659026349417438700,3.455438720703125,2.6334877014160156,-1.0934826135635376,0.8911658525466919
1659026349427108900,3.46510888671875,2.2620697021484375,-1.0054528713226318,0.9654396772384644
1659026349436779300,3.474779296875,1.4911746978759766,-1.0143307447433472,0.8922233581542969
1659026349446449700,3.48444970703125,0.7910127639770508,-1.0637578964233398,0.6791326999664307
1659026349456120000,3.4941201171875,0.2393198013305664,-1.1336278915405273,0.34486496448516846
1659026349465790500,3.50379052734375,0.006024360656738281,-1.1735663414001465,-0.04105353355407715
1659026349475460600,3.513460693359375,0.000064849853515625,-1.1867117881774902,-0.40493786334991455
1659026349485131000,3.523131103515625,0.2528505325317383,-0.9879753589630127,-0.6214777231216431
1659026349494801400,3.532801513671875,0.435089111328125,-0.7577600479125977,-0.601569652557373
1659026349504471800,3.542471923828125,0.5199728012084961,-0.6260591745376587,-0.4372764229774475
1659026349514142000,3.552141845703125,0.5519475936889648,-0.5240433216094971,-0.17357361316680908
1659026349523812600,3.5618125,0.4364967346191406,-0.43423599004745483,0.13334417343139648
1659026349533482800,3.571482666015625,0.20068931579589844,-0.46369555592536926,0.39699292182922363
1659026349543153200,3.581153076171875,0.14947795867919922,-0.5022716522216797,0.3477170467376709
1659026349552823600,3.590823486328125,0.30835533142089844,-0.5046769380569458,0.13484549522399902
1659026349562494000,3.600493896484375,0.4108562469482422,-0.6012156009674072,0.02171027660369873
1659026349572164400,3.610164306640625,0.40499401092529297,-0.7517236471176147,-0.0036743879318237305
1659026349581834500,3.61983447265625,0.29906654357910156,-0.7597669959068298,0.12049245834350586
1659026349591505000,3.6295048828125,0.29601383209228516,-0.45075321197509766,0.2551915645599365
1659026349601175300,3.63917529296875,0.1219491958618164,-0.36468207836151123,0.09321463108062744
1659026349610845700,3.648845703125,-0.03926372528076172,0.003021240234375,0.12105154991149902
1659026349620516000,3.65851611328125,0.09275436401367188,0.3784372806549072,0.3232440948486328
1659026349630186200,3.668186279296875,0.23289775848388672,0.5993030071258545,0.5176855325698853
1659026349639856600,3.677856689453125,0.12114524841308594,0.549799919128418,0.676468014717102
1659026349649527000,3.687527099609375,-0.09099102020263672,0.5953172445297241,0.8019851446151733
1659026349659197400,3.697197509765625,-0.07742118835449219,0.6940082311630249,0.6236401796340942
1659026349668867800,3.706867919921875,-0.0016202926635742188,0.479449987411499,0.13691771030426025
1659026349678538000,3.7165380859375,-0.017561912536621094,0.19974565505981445,-0.06398439407348633
1659026349688208400,3.72620849609375,0.16263484954833984,-0.06595611572265625,-0.12451505661010742
1659026349697878800,3.735878662109375,0.2119150161743164,-0.32430195808410645,-0.15041351318359375
1659026349707549200,3.745549072265625,-0.04749584197998047,-0.3633764982223511,-0.13322389125823975
1659026349717219600,3.755219482421875,-0.24161720275878906,-0.27195167541503906,-0.1509692668914795
1659026349726890000,3.764889892578125,-0.1891956329345703,-0.1518707275390625,-0.17477703094482422
1659026349736560000,3.77456005859375,-0.22302722930908203,0.05133354663848877,-0.08721375465393066
1659026349746230500,3.78423046875,-0.4967985153198242,0.14961636066436768,-0.13881123065948486
1659026349755901000,3.79390087890625,-0.7326517105102539,0.19328105449676514,-0.3349837064743042
1659026349765571300,3.8035712890625,-1.0065603256225586,0.21025454998016357,-0.34982234239578247
1659026349775241700,3.81324169921875,-1.4337892532348633,0.16255056858062744,-0.2907521724700928
1659026349784912000,3.822911865234375,-1.9319343566894531,0.38318347930908203,-0.1773204803466797
1659026349794582300,3.832582275390625,-2.0239529609680176,0.5817831754684448,0.015230774879455566
1659026349804252700,3.842252685546875,-1.7577362060546875,0.7493267059326172,0.1812838315963745
1659026349813923000,3.851923095703125,-1.4678068161010742,0.7656631469726562,0.1527947187423706
1659026349823593500,3.861593505859375,-1.2274580001831055,0.5181128978729248,-0.10481220483779907
1659026349833263600,3.871263671875,-1.0767440795898438,0.3213402032852173,-0.4805757403373718
1659026349842934300,3.880934326171875,-0.9126882553100586,0.08294308185577393,-0.6722863912582397
1659026349852604400,3.8906044921875,-0.802952766418457,-0.2223057746887207,-0.6051468849182129
1659026349862274800,3.90027490234375,-1.1936283111572266,-0.22477805614471436,-0.15430361032485962
1659026349871945200,3.9099453125,-1.9381155967712402,-0.05332636833190918,0.5695763230323792
1659026349881615600,3.91961572265625,-2.415013313293457,-0.016388535499572754,1.240570068359375
1659026349891285800,3.92928564453125,-2.57808780670166,-0.373348593711853,1.4101264476776123
1659026349900956200,3.9389560546875,-2.8190770149230957,-0.8739380836486816,1.081073522567749
1659026349910626600,3.94862646484375,-3.781815528869629,-1.6922235488891602,0.6685003042221069
1659026349920297000,3.958296875,-3.5638041496276855,-2.075321674346924,0.260882705450058
1659026349929967400,3.96796728515625,-2.0176644325256348,-1.7333416938781738,-0.30735406279563904
1659026349939637500,3.977637451171875,-1.1735849380493164,-1.1025264263153076,-1.0692309141159058
1659026349949308000,3.987307861328125,-0.8821659088134766,-0.3899611234664917,-1.3225502967834473
1659026349958978300,3.996978271484375,-0.34392738342285156,0.9033406972885132,-0.9658655524253845
1659026349968648700,4.006648681640625,-0.2456197738647461,0.9691007137298584,0.12005215883255005
1659026349978319000,4.016319091796875,-1.4822273254394531,0.047023653984069824,1.4555442333221436
1659026349987989200,4.0259892578125,-2.314999580383301,-0.9618818163871765,2.214550495147705
1659026349997660000,4.035659912109375,-2.2782840728759766,-1.667510747909546,2.125019073486328
1659026350007330000,4.045330078125,-1.7746505737304688,-2.042562961578369,1.7310479879379272
1659026350017000400,4.05500048828125,-1.1479969024658203,-1.8807117938995361,1.150626540184021
1659026350026670800,4.0646708984375,-0.7002878189086914,-1.562134861946106,0.43016618490219116
1659026350036341200,4.07434130859375,-1.1800975799560547,-1.332404613494873,0.1565837264060974
1659026350046011600,4.08401171875,-0.822169303894043,-0.8164066076278687,-0.0839235782623291
1659026350055681800,4.093681884765625,-0.20242881774902344,0.0525740385055542,-0.48228198289871216
1659026350065352200,4.103352294921875,-0.16458511352539062,0.3446645736694336,-0.4012717008590698
1659026350075022600,4.113022705078125,-0.2782726287841797,-0.2868802547454834,0.22986096143722534
1659026350084693000,4.12269287109375,-0.15084457397460938,-1.1569055318832397,0.8281028270721436
1659026350094363400,4.13236328125,0.2174520492553711,-1.8474727869033813,1.0197863578796387
1659026350104033500,4.142033447265625,0.6068897247314453,-1.707597017288208,1.1433601379394531
1659026350113704000,4.151703857421875,0.4780130386352539,-1.1601243019104004,1.3764976263046265
1659026350123374300,4.161374267578125,0.43320560455322266,-0.37286317348480225,1.1783751249313354
1659026350133044700,4.171044677734375,0.31138134002685547,0.29211175441741943,0.7636572122573853
1659026350142715000,4.18071484375,0.08258914947509766,0.5417085886001587,0.31980979442596436
1659026350152385300,4.19038525390625,-0.3856477737426758,0.10299348831176758,0.408740758895874
1659026350162055700,4.2000556640625,-1.100996971130371,-0.6980705261230469,0.6009772419929504
1659026350171726000,4.20972607421875,-1.330765724182129,-1.135369896888733,0.43421638011932373
1659026350181396500,4.219396484375,-1.8503918647766113,-1.0283291339874268,0.5344821810722351
1659026350191067000,4.22906689453125,-2.367034435272217,-1.118901252746582,0.6639262437820435
1659026350200737300,4.2387373046875,-2.778191089630127,-1.1320115327835083,0.692087709903717
1659026350210407400,4.248407470703125,-2.451291084289551,-0.9287488460540771,0.5155179500579834
1659026350220077800,4.258077880859375,-1.79534912109375,-0.4355877637863159,-0.22258269786834717
1659026350229748200,4.267748291015625,-1.233449935913086,-0.09773623943328857,-0.8927083015441895
1659026350239418600,4.277418701171875,-0.912898063659668,-0.46454256772994995,-0.43385303020477295
1659026350249089000,4.287089111328125,-1.1537466049194336,-0.9734333157539368,0.03825187683105469
1659026350258759200,4.29675927734375,-1.6967439651489258,-0.8187025785446167,-0.47747766971588135
1659026350268429600,4.3064296875,-2.106930732727051,-0.7304136157035828,-0.7510318756103516
1659026350278100000,4.316099853515625,-2.299330234527588,-0.7264254093170166,-0.7662660479545593
1659026350287770400,4.325770263671875,-2.901214599609375,-0.6931577920913696,-0.417732298374176
1659026350297440800,4.335440673828125,-3.4722585678100586,-0.5816358923912048,0.25561264157295227
1659026350307111000,4.34511083984375,-3.6306958198547363,-0.36293190717697144,0.5613806247711182
1659026350316781300,4.35478125,-3.2593607902526855,-0.1439993977546692,0.7157769799232483
1659026350326451700,4.36445166015625,-2.6033287048339844,0.06981462240219116,0.8006846308708191
1659026350336122000,4.3741220703125,-1.9935369491577148,0.15022766590118408,0.7045042514801025
1659026350345792500,4.38379248046875,-1.6895952224731445,-0.08352148532867432,0.5980199575424194
1659026350355463000,4.393462890625,-1.9149279594421387,-0.31824707984924316,0.242713063955307
1659026350365133000,4.403133056640625,-2.5204057693481445,-0.40725135803222656,-0.1675863265991211
1659026350374803500,4.412803466796875,-2.9352598190307617,-0.2404472827911377,-0.41540002822875977
1659026350384473900,4.422473876953125,-3.2158126831054688,-0.08380424976348877,-0.35755157470703125
1659026350394144300,4.432144287109375,-3.0467114448547363,-0.07056927680969238,-0.2667989432811737
1659026350403814700,4.441814697265625,-2.3099818229675293,-0.23484444618225098,-0.2680259644985199
1659026350413484800,4.45148486328125,-1.4833087921142578,-0.26796603202819824,-0.3920826315879822
1659026350423155200,4.4611552734375,-0.9593181610107422,-0.23999488353729248,-0.38557544350624084
1659026350432825600,4.47082568359375,-0.7654857635498047,-0.1940516233444214,-0.3842107057571411
1659026350442496000,4.48049609375,-1.1643381118774414,-0.2200944423675537,-0.3833271861076355
1659026350452166400,4.49016650390625,-1.4928836822509766,-0.28134381771087646,-0.25826963782310486
1659026350461836500,4.49983642578125,-1.462296485900879,-0.3812321424484253,-0.16710147261619568
1659026350471507000,4.5095068359375,-1.401651382446289,-0.4418911933898926,-0.23769891262054443
1659026350481177300,4.51917724609375,-1.4684257507324219,-0.45098060369491577,-0.2374495565891266
1659026350490847700,4.52884765625,-1.2731914520263672,-0.43902158737182617,-0.27259036898612976
1659026350500518100,4.53851806640625,-0.8678197860717773,-0.21160900592803955,-0.44254446029663086
1659026350510188500,4.5481884765625,-0.6608428955078125,0.07286036014556885,-0.4545449912548065
1659026350519859000,4.55785888671875,-0.6219549179077148,0.19968783855438232,-0.3793433904647827
1659026350529529000,4.567529052734375,-0.8370800018310547,0.2327951192855835,-0.2365233302116394
1659026350539199500,4.577199462890625,-0.9072513580322266,0.2845480442047119,-0.16850146651268005
1659026350548870000,4.586869873046875,-0.8412647247314453,0.31000471115112305,-0.21041113138198853
1659026350558540300,4.596540283203125,-0.7816257476806641,0.27635836601257324,-0.15995121002197266
1659026350568210700,4.606210693359375,-1.129974365234375,0.21689510345458984,0.026940584182739258
1659026350577880800,4.615880859375,-1.3402519226074219,0.3508263826370239,0.027917325496673584
1659026350587551200,4.62555126953125,-1.3136777877807617,0.5362911224365234,-0.15888071060180664
1659026350597221600,4.6352216796875,-1.522252082824707,0.543838381767273,-0.24679520726203918
1659026350606892000,4.64489208984375,-1.587763786315918,0.5509610176086426,-0.3451145887374878
1659026350616562200,4.654562255859375,-1.3268861770629883,0.49141228199005127,-0.39909207820892334
1659026350626232600,4.664232666015625,-1.023977279663086,0.4033912420272827,-0.46707355976104736
1659026350635903000,4.673903076171875,-0.9657077789306641,0.23708200454711914,-0.37587207555770874
1659026350645573400,4.683573486328125,-1.182830810546875,0.07236266136169434,-0.136674165725708
1659026350655243800,4.693243896484375,-1.4697647094726562,0.037157535552978516,-0.0029929280281066895
1659026350664914000,4.702913818359375,-1.8157968521118164,0.0964130163192749,0.02666109800338745
1659026350674584600,4.71258447265625,-2.1731371879577637,0.05328810214996338,0.0062837302684783936
1659026350684254700,4.722254638671875,-2.4711151123046875,0.018688321113586426,-0.11860933899879456
1659026350693925000,4.731925048828125,-2.522247314453125,-0.08873426914215088,-0.3582277297973633
1659026350703595500,4.741595458984375,-2.5393896102905273,-0.27196407318115234,-0.48964542150497437
1659026350713266000,4.751265869140625,-2.668111801147461,-0.3364279270172119,-0.4877508282661438
1659026350722936300,4.760936279296875,-3.231902599334717,-0.308826208114624,-0.28085291385650635
1659026350732606500,4.7706064453125,-3.6535749435424805,-0.34919071197509766,-0.18112032115459442
1659026350742276900,4.78027685546875,-3.758087635040283,-0.32533133029937744,-0.18779870867729187
1659026350751947300,4.789947265625,-3.7431812286376953,-0.29003703594207764,-0.16489699482917786
1659026350761617700,4.79961767578125,-3.5639352798461914,-0.2517737150192261,-0.19215363264083862
1659026350771288000,4.8092880859375,-3.34609317779541,-0.15472900867462158,-0.3479391038417816
1659026350780958200,4.818958251953125,-3.2329139709472656,0.05488324165344238,-0.5073840022087097
1659026350790628600,4.828628662109375,-3.443486213684082,0.18906724452972412,-0.3258637487888336
1659026350800299000,4.838299072265625,-3.724933624267578,0.15760254859924316,0.09620912373065948
1659026350809969400,4.847969482421875,-3.7355194091796875,0.1097022294998169,0.3179735243320465
1659026350819639800,4.857639892578125,-3.672423839569092,-0.07438218593597412,0.6273837089538574
1659026350829310200,4.867310302734375,-3.382718086242676,-0.13574087619781494,0.9769483208656311
1659026350838980400,4.87698046875,-3.000737190246582,-0.05039489269256592,0.8870627880096436
1659026350848650800,4.886650634765625,-2.861435890197754,-0.08330667018890381,0.5608753561973572
1659026350858321200,4.896321044921875,-2.691159248352051,-0.29997098445892334,0.32939544320106506
1659026350867991600,4.905991455078125,-2.685990810394287,-0.7561491131782532,0.2479206621646881
1659026350877662000,4.915661865234375,-2.9852657318115234,-1.1368755102157593,0.1776542067527771
1659026350887332000,4.92533203125,-3.561429977416992,-1.2976658344268799,0.13011056184768677
1659026350897002500,4.93500244140625,-4.009676933288574,-1.2163254022598267,0.09733748435974121
1659026350906673000,4.9446728515625,-4.020734786987305,-1.1195882558822632,0.19279515743255615
1659026350916343300,4.95434326171875,-3.624525547027588,-1.0578047037124634,0.35017889738082886
1659026350926013700,4.964013671875,-3.245514392852783,-1.1403560638427734,0.5974171161651611
1659026350935683800,4.973683837890625,-3.2467737197875977,-0.7679860591888428,0.5531665086746216
1659026350945354200,4.983354248046875,-3.1053781509399414,-0.536791205406189,0.5762088298797607
1659026350955024600,4.993024658203125,-3.0208091735839844,-1.1158931255340576,1.3500090837478638
1659026350964695000,5.002695068359375,-2.8188676834106445,-1.091943383216858,1.3218504190444946
1659026350974365400,5.012365478515625,-3.0665740966796875,-0.9766227006912231,0.8886951208114624
1659026350984035800,5.022035888671875,-3.448056221008301,-0.8400969505310059,0.3268774747848511
1659026350993706200,5.031706298828125,-3.467855453491211,-0.8032126426696777,-0.16555726528167725
1659026351003376400,5.04137646484375,-3.173725128173828,-0.8951371908187866,-0.3202850818634033
1659026351013046800,5.051046875,-2.8422365188598633,-0.9520328044891357,-0.23479396104812622
1659026351022717200,5.06071728515625,-2.865262985229492,-1.2880908250808716,0.021053314208984375
1659026351032387600,5.0703876953125,-2.9330759048461914,-1.6432387828826904,0.517852783203125
1659026351042058000,5.08005810546875,-2.8583502769470215,-1.7758755683898926,0.8315616846084595
1659026351051728100,5.08972802734375,-2.361276626586914,-2.041454315185547,1.4956998825073242
1659026351061398500,5.0993984375,-1.590916633605957,-2.138880491256714,1.730376958847046
1659026351071069000,5.10906884765625,-1.0713319778442383,-1.7207560539245605,1.061807632446289
1659026351080739300,5.1187392578125,-0.7167978286743164,-1.4750568866729736,0.176399827003479
1659026351090409700,5.12840966796875,-0.367706298828125,-1.7119944095611572,-0.3258678913116455
1659026351100079900,5.138079833984375,-0.12078571319580078,-2.018848180770874,-0.7558383941650391
1659026351109750300,5.147750244140625,0.06452274322509766,-2.231431722640991,-0.9117308855056763
1659026351119420700,5.157420654296875,-0.08817577362060547,-2.2783210277557373,-0.7442314624786377
1659026351129091000,5.167091064453125,-0.6554126739501953,-2.4217371940612793,0.2505471110343933
1659026351138761500,5.176761474609375,-0.49753284454345703,-2.2793312072753906,1.4195475578308105
1659026351148432000,5.186431884765625,0.023407936096191406,-1.449117660522461,1.7219829559326172
1659026351158102000,5.19610205078125,0.6513633728027344,-0.34819650650024414,0.9261166453361511
1659026351167772400,5.2057724609375,1.5728979110717773,-0.07386422157287598,0.4091900587081909
1659026351177442800,5.21544287109375,2.2633934020996094,-0.7006325721740723,0.4669395685195923
1659026351187113200,5.22511328125,2.1040468215942383,-1.6580698490142822,0.43924617767333984
1659026351196783600,5.23478369140625,1.5397796630859375,-2.2157042026519775,0.157334566116333
1659026351206453800,5.244453857421875,1.2985877990722656,-1.9102628231048584,-0.4803978204727173
1659026351216124200,5.254124267578125,1.4328680038452148,-1.03263258934021,-1.1847275495529175
1659026351225794600,5.263794677734375,1.7657136917114258,-0.32737839221954346,-1.5939465761184692
1659026351235465000,5.27346484375,1.856123924255371,-0.24995720386505127,-1.5495320558547974
1659026351245135400,5.28313525390625,1.7027912139892578,-0.8291312456130981,-0.7434982061386108
1659026351254805500,5.292805419921875,1.757124900817871,-1.5838762521743774,0.5292816162109375
1659026351264476000,5.302475830078125,2.2159109115600586,-1.8354628086090088,1.275870680809021
1659026351274146300,5.312146240234375,2.267972946166992,-0.8859210014343262,1.7148990631103516
1659026351283816700,5.321816650390625,2.2561473846435547,0.5827202796936035,1.6145298480987549
1659026351293487000,5.331487060546875,1.7893085479736328,1.9226794242858887,0.6271810531616211
1659026351303157500,5.341157470703125,1.372335433959961,2.5235822200775146,-0.9249658584594727
1659026351312828000,5.350827880859375,1.2370281219482422,1.8931057453155518,-1.824122667312622
1659026351322498000,5.360498046875,1.4641637802124023,0.5764249563217163,-2.2909319400787354
1659026351332168400,5.37016845703125,2.1351451873779297,-0.6257297992706299,-2.3740315437316895
1659026351341838800,5.3798388671875,2.328007698059082,-1.0607812404632568,-2.179165840148926
1659026351351509200,5.38950927734375,2.3360118865966797,-0.5378329753875732,-1.5160391330718994
1659026351361179600,5.3991796875,2.642073631286621,0.2530475854873657,-0.11561751365661621
1659026351370849800,5.408849853515625,2.1945714950561523,1.2318462133407593,0.259615421295166
1659026351380520200,5.418520263671875,2.225466728210449,1.7846062183380127,-0.2593879699707031
1659026351390190600,5.428190673828125,2.997285842895508,1.6457550525665283,-1.2462148666381836
1659026351399861000,5.437861083984375,3.9141721725463867,1.2539936304092407,-2.2678332328796387
1659026351409531400,5.447531494140625,4.601299285888672,1.1769063472747803,-2.4228107929229736
1659026351419201500,5.457201416015625,5.054390907287598,1.2549494504928589,-1.9997787475585938
1659026351428872000,5.466871826171875,4.594381332397461,1.9772964715957642,-1.5815068483352661
1659026351438542300,5.476542236328125,4.038381576538086,2.7345261573791504,-0.6637611389160156
1659026351448212700,5.486212646484375,3.299558639526367,3.0619888305664062,0.17787408828735352
1659026351457883100,5.495883056640625,2.8741979598999023,2.8629331588745117,0.25491178035736084
1659026351467553500,5.505553466796875,2.523369789123535,2.062896490097046,-0.27234482765197754
1659026351477223700,5.5152236328125,2.1356372833251953,1.2561196088790894,-0.7756681442260742
1659026351486894000,5.52489404296875,2.3552074432373047,0.5799255967140198,-0.8241216540336609
1659026351496564500,5.534564453125,2.4011011123657227,0.42636191844940186,-0.8699222207069397
1659026351506235000,5.54423486328125,2.813312530517578,0.8108682632446289,-0.6567109227180481
1659026351515905300,5.5539052734375,3.22475528717041,1.323738932609558,-0.45516979694366455
1659026351525575400,5.563575439453125,3.6757240295410156,1.4960291385650635,-0.4502398371696472
1659026351535245800,5.573245849609375,3.8259220123291016,1.0894300937652588,-0.456771582365036
1659026351544916200,5.582916259765625,4.015232086181641,0.29815298318862915,-0.25026389956474304
1659026351554586600,5.592586669921875,4.371241569519043,0.6861580610275269,-0.5938305854797363
1659026351564257000,5.602257080078125,4.704133987426758,0.9243830442428589,-0.2699456214904785
1659026351573927200,5.61192724609375,5.010285377502441,1.0821261405944824,0.1767473667860031
1659026351583597600,5.62159765625,5.185331344604492,1.0095851421356201,0.21351559460163116
1659026351593268000,5.63126806640625,5.527071952819824,1.0844894647598267,0.214975968003273
1659026351602938400,5.6409384765625,5.326220512390137,1.1923017501831055,0.5005763173103333
1659026351612608800,5.65060888671875,5.137055397033691,1.013292670249939,0.6544386744499207
1659026351622279200,5.660279052734375,4.48811149597168,0.7839415073394775,0.8327720165252686
1659026351631949600,5.669949462890625,3.7721357345581055,0.5249323844909668,0.8493417501449585
1659026351641619700,5.67961962890625,3.4611330032348633,0.2774048149585724,0.7207882404327393
1659026351651290000,5.6892900390625,2.6850051879882812,0.09515661001205444,0.3970111012458801
1659026351660960500,5.69896044921875,2.2583017349243164,0.27178525924682617,0.2205403745174408
1659026351670631000,5.708630859375,1.9787883758544922,0.8023616671562195,-0.4058746099472046
1659026351680301300,5.71830126953125,2.0253095626831055,1.0141023397445679,-0.4941560626029968
1659026351689971500,5.727971435546875,2.0580368041992188,0.9218832850456238,-0.4424512982368469
1659026351699641900,5.737641845703125,2.073248863220215,0.8715207576751709,-0.3175891637802124
1659026351709312300,5.747312255859375,1.7414484024047852,0.8145017027854919,-0.06326866149902344
1659026351718982700,5.756982666015625,1.1332311630249023,0.8317209482192993,0.24476933479309082
1659026351728653000,5.766653076171875,0.3296041488647461,0.7042492032051086,0.339123010635376
1659026351738323200,5.7763232421875,-0.2860069274902344,0.18765869736671448,0.42595887184143066
1659026351747993900,5.785993896484375,3.500033378601074,-0.1573236882686615,0.4221400022506714
1659026351757664000,5.7956640625,10.132882118225098,-0.19886700809001923,-1.2767151594161987
1659026351767334400,5.80533447265625,1.1475305557250977,1.675722360610962,-2.2867050170898438
1659026351777004800,5.8150048828125,-1.4498844146728516,1.0907551050186157,-0.4794454574584961
1659026351786675200,5.82467529296875,0.42197608947753906,-0.2765538990497589,0.33626824617385864
1659026351796345300,5.834345458984375,0.23341083526611328,-0.5693506598472595,-0.07936382293701172
1659026351806015700,5.844015625,-0.30751514434814453,-0.24317172169685364,-0.20926368236541748
1659026351815686100,5.85368603515625,-0.05967903137207031,0.15326888859272003,-0.15318965911865234
1659026351825356500,5.8633564453125,0.11653614044189453,0.3516515791416168,-0.029867172241210938
1659026351835027000,5.87302685546875,-0.3068866729736328,0.3750266432762146,0.13032495975494385
1659026351844697000,5.882697021484375,0.06896495819091797,0.2040124237537384,0.10024800896644592
1659026351854367500,5.892367431640625,-0.4362821578979492,0.3353143334388733,-0.5869549512863159
1659026351864038000,5.902037841796875,-0.27100276947021484,0.5057222843170166,-0.6775104403495789
1659026351873708300,5.911708251953125,0.6571931838989258,0.3584817051887512,-0.16159787774085999
1659026351883378700,5.921378662109375,0.6722202301025391,0.3136451244354248,0.017583683133125305
1659026351893048800,5.931048828125,0.03170299530029297,0.4217509329319,-0.12063928693532944
1659026351902719500,5.940719482421875,-0.4478731155395508,0.48134422302246094,0.025922365486621857
1659026351912389600,5.9503896484375,-0.6334295272827148,0.489755243062973,0.2302677035331726
1659026351922060000,5.96006005859375,-0.42668819427490234,0.4346223473548889,0.25253206491470337
1659026351931730400,5.96973046875,-0.26060962677001953,0.2366638481616974,0.18149138987064362
1659026351941400800,5.97940087890625,-0.34031105041503906,-0.15407603979110718,0.1897072046995163
1659026351951071200,5.9890712890625,-0.4514961242675781,-0.4236946702003479,0.2712492048740387
1659026351960741400,5.998741455078125,-0.45563316345214844,-0.4597651958465576,0.2227550745010376
1659026351970411800,6.008411865234375,-0.2733478546142578,-0.46726393699645996,0.21955245733261108
1659026351980082200,6.018082275390625,0.18016624450683594,-0.41320592164993286,0.15767347812652588
1659026351989752600,6.027752685546875,0.5814790725708008,-0.24360445141792297,0.05952948331832886
1659026351999423000,6.037423095703125,0.38317012786865234,-0.007296770811080933,-0.07431021332740784
1659026352009093000,6.047093017578125,-0.46788501739501953,0.11652153730392456,-0.091891348361969
1659026352018763500,6.056763427734375,-0.6107749938964844,0.005492866039276123,0.061320871114730835
1659026352028434000,6.066433837890625,-0.40290260314941406,-0.12956443428993225,0.034190595149993896
1659026352038104300,6.076104248046875,-0.2102813720703125,-0.10382676124572754,0.07517465949058533
1659026352047774700,6.085774658203125,-0.0650625228881836,-0.16471439599990845,0.0969589352607727
1659026352057444900,6.09544482421875,0.04481315612792969,-0.27200937271118164,0.02380192279815674
1659026352067115500,6.105115478515625,0.08133602142333984,-0.19297730922698975,-0.13486304879188538
1659026352076785700,6.11478564453125,-0.08875656127929688,0.10836577415466309,-0.1603485345840454
1659026352086456000,6.1244560546875,-0.22498035430908203,0.2836856245994568,-0.106270432472229
1659026352096126500,6.13412646484375,-0.37041187286376953,0.2963031530380249,-0.09408232569694519
1659026352105796900,6.143796875,-0.4403371810913086,0.07174116373062134,-0.10636268556118011
1659026352115467000,6.153467041015625,-0.3345947265625,-0.1354825496673584,-0.19817258417606354
1659026352125137400,6.163137451171875,-0.2969236373901367,-0.1660175323486328,-0.4278797507286072
1659026352134807800,6.172807861328125,-0.21476173400878906,-0.08520013093948364,-0.7270122170448303
1659026352144478200,6.182478271484375,-0.024723052978515625,0.016437500715255737,-0.8562288284301758
1659026352154148600,6.192148681640625,-0.0240936279296875,0.04586711525917053,-0.6918668746948242
1659026352163818800,6.20181884765625,-0.0011606216430664062,0.023234963417053223,-0.27142030000686646
1659026352173489200,6.2114892578125,0.056998252868652344,-0.033921658992767334,0.0805911123752594
1659026352183159600,6.22115966796875,0.0748300552368164,-0.0354747474193573,0.19619271159172058
1659026352192830000,6.230829833984375,0.20740604400634766,0.016505390405654907,0.13021552562713623
1659026352202500400,6.240500244140625,0.3087148666381836,0.12186649441719055,0.14022016525268555
1659026352212170500,6.25017041015625,0.1912994384765625,0.21415290236473083,0.043949902057647705
1659026352221841200,6.259841064453125,0.13359546661376953,0.10126125812530518,-0.15672194957733154
1659026352231511300,6.26951123046875,0.12229728698730469,-0.09836234152317047,-0.22726327180862427
1659026352241181700,6.279181640625,0.18840885162353516,-0.2413923442363739,-0.02149754762649536
1659026352250852000,6.28885205078125,0.08341026306152344,-0.20384261012077332,-0.04524350166320801
1659026352260522500,6.2985224609375,-0.07436943054199219,-0.10899418592453003,-0.11638647317886353
1659026352270193000,6.30819287109375,-0.09936332702636719,-0.07308170199394226,-0.08211570978164673
1659026352279863000,6.317863037109375,-0.04189300537109375,-0.058935344219207764,0.034036099910736084
1659026352289533400,6.327533447265625,-0.024298667907714844,0.05843666195869446,0.04253333806991577
1659026352299203800,6.337203857421875,0.0661163330078125,0.13243234157562256,0.009285330772399902
1659026352308874200,6.346874267578125,0.05991649627685547,0.04009661078453064,0.00788891315460205
1659026352318544600,6.356544677734375,-0.05303478240966797,-0.05673348903656006,-0.010670602321624756
1659026352328214800,6.36621484375,0.01256561279296875,-0.03705841302871704,-0.08987420797348022
1659026352337885200,6.37588525390625,-0.031027793884277344,0.050221413373947144,-0.07611936330795288
1659026352347555600,6.3855556640625,-0.07137870788574219,0.12927177548408508,0.027350246906280518
1659026352357226000,6.39522607421875,-0.1344776153564453,0.06565859913825989,0.14236223697662354
1659026352366896400,6.404896484375,-0.018596649169921875,-0.009741991758346558,0.0883941650390625
1659026352376566500,6.41456640625,0.08640861511230469,-0.009402871131896973,0.019185662269592285
1659026352386237200,6.4242373046875,0.05595970153808594,-0.014249205589294434,0.1075361967086792
1659026352395907300,6.4339072265625,-0.08216285705566406,0.0038538873195648193,0.055696964263916016
1659026352405577700,6.44357763671875,-0.04512500762939453,0.0381123423576355,-0.07053768634796143
1659026352415248100,6.453248046875,-0.020585060119628906,0.1028800904750824,-0.2064458727836609
1659026352424918500,6.46291845703125,-0.016493797302246094,0.08223828673362732,-0.24569839239120483
1659026352434588700,6.472588623046875,-0.08790111541748047,0.008701086044311523,-0.22637665271759033
1659026352444259000,6.482259033203125,-0.09926891326904297,-0.0347629189491272,-0.20462095737457275
1659026352453929500,6.491929443359375,-0.0030488967895507812,-0.17067429423332214,-0.04067814350128174
1659026352463599900,6.501599853515625,0.022347450256347656,-0.23364371061325073,0.050389885902404785
1659026352473270300,6.511270263671875,0.018898963928222656,-0.14487800002098083,0.13154733180999756
1659026352482940400,6.5209404296875,0.0030584335327148438,-0.1264018714427948,0.2076878547668457
1659026352492610800,6.53061083984375,-0.17269611358642578,0.009474426507949829,0.030429363250732422
1659026352502281200,6.54028125,-0.5162754058837891,0.23851191997528076,-0.25989407300949097
1659026352511951600,6.54995166015625,-0.19014739990234375,0.08660739660263062,0.44808709621429443
1659026352521622000,6.5596220703125,0.0685415267944336,-0.0013089776039123535,0.7260830402374268
1659026352531292200,6.569292236328125,-0.04876232147216797,-0.055042654275894165,0.6157287359237671
1659026352540962800,6.578962890625,0.11461448669433594,-0.0717248022556305,0.5162343978881836
1659026352550633000,6.588633056640625,0.12303447723388672,0.034360527992248535,0.09131169319152832
1659026352560303400,6.598303466796875,-0.020485877990722656,0.05091860890388489,0.036724090576171875
1659026352569973800,6.607973876953125,-0.056748390197753906,0.047936975955963135,0.0649336576461792
1659026352579644200,6.61764404296875,-0.03090667724609375,0.08235198259353638,-0.08470010757446289
1659026352589314600,6.627314453125,-0.025180816650390625,0.07482737302780151,-0.21667253971099854
1659026352598984700,6.636984619140625,-0.06412506103515625,-0.0174524188041687,-0.12928420305252075
1659026352608655000,6.646655029296875,-0.188507080078125,-0.09725958108901978,0.018786311149597168
1659026352618325500,6.656325439453125,-0.23128604888916016,-0.0328499972820282,0.1401044726371765
1659026352627996000,6.665995849609375,-0.21738910675048828,0.019750118255615234,0.2674604058265686
1659026352637666300,6.675666259765625,0.03252410888671875,0.09439253807067871,0.4346184730529785
1659026352647336400,6.68533642578125,0.07814216613769531,0.257381796836853,0.3880575895309448
1659026352657006800,6.6950068359375,0.0736837387084961,0.25269705057144165,0.27227914333343506
1659026352666677200,6.70467724609375,0.16973495483398438,0.13240760564804077,0.17094355821609497
1659026352676347600,6.71434765625,0.13297653198242188,0.02571237087249756,0.08525103330612183
1659026352686018000,6.72401806640625,-0.00028705596923828125,-0.009972631931304932,0.05739760398864746
1659026352695688200,6.733688232421875,-0.057898521423339844,0.03295058012008667,0.0012944936752319336
1659026352705358600,6.743358642578125,-0.089385986328125,0.05836457014083862,-0.13621509075164795
1659026352715029000,6.753029052734375,-0.0951986312866211,0.06566262245178223,-0.24065691232681274
1659026352724699400,6.762699462890625,-0.06754302978515625,0.017387449741363525,-0.3363259434700012
1659026352734369800,6.772369873046875,-0.05646228790283203,-0.029906034469604492,-0.3285699486732483
1659026352744040200,6.782040283203125,-0.11710548400878906,-0.03065246343612671,-0.27516406774520874
1659026352753710300,6.79171044921875,-0.1390209197998047,-0.03149759769439697,-0.1856589913368225
1659026352763380700,6.801380615234375,-0.07944297790527344,-0.032627105712890625,-0.1265438199043274
1659026352773051100,6.811051025390625,0.01795196533203125,0.020075976848602295,-0.10131967067718506
1659026352782721500,6.820721435546875,0.026609420776367188,0.0577695369720459,-0.09043526649475098
1659026352792392000,6.830391845703125,0.05748558044433594,0.029328763484954834,-0.12350088357925415
1659026352802062000,6.84006201171875,0.054984092712402344,0.012920200824737549,-0.1521398425102234
1659026352811732500,6.849732421875,-0.008542060852050781,-0.0386519730091095,-0.14765876531600952
1659026352821403000,6.85940283203125,-0.014456748962402344,-0.0508190393447876,-0.23004117608070374
1659026352831073300,6.8690732421875,-0.04726982116699219,-0.08246350288391113,-0.21574333310127258
1659026352840743700,6.87874365234375,-0.0005979537963867188,-0.07850110530853271,-0.12048006057739258
1659026352850413800,6.888413818359375,0.02779674530029297,-0.004007816314697266,-0.09787118434906006
1659026352860084500,6.89808447265625,0.05227947235107422,0.013414084911346436,-0.08272302150726318
1659026352869754600,6.907754638671875,0.050536155700683594,-0.03042319416999817,-0.08011198043823242
1659026352879425000,6.917425048828125,0.025308609008789062,-0.05436226725578308,-0.05395108461380005
1659026352889095400,6.927095458984375,-0.033600807189941406,-0.07996946573257446,-0.023388206958770752
1659026352898765800,6.936765869140625,-0.0643463134765625,-0.11088758707046509,0.0032411813735961914
1659026352908436200,6.946436279296875,-0.0402679443359375,-0.08550775051116943,-0.024360060691833496
1659026352918106400,6.9561064453125,-0.04933357238769531,-0.03171992301940918,-0.045177340507507324
1659026352927776800,6.96577685546875,-0.09108734130859375,-0.002306729555130005,-0.017357051372528076
1659026352937447200,6.975447265625,-0.08024978637695312,-0.001904219388961792,0.017154335975646973
1659026352947117600,6.98511767578125,-0.024671554565429688,0.0024257898330688477,0.057753145694732666
1659026352956788000,6.9947880859375,0.05736732482910156,0.029922693967819214,0.04486721754074097
1659026352966458000,7.0044580078125,0.04079246520996094,0.04287666082382202,0.06164956092834473
1659026352976128500,7.01412841796875,0.023908615112304688,-0.014403730630874634,0.036945462226867676
1659026352985799000,7.023798828125,0.08695030212402344,-0.018191277980804443,-0.026787400245666504
1659026352995469300,7.03346923828125,0.0896759033203125,0.0035021305084228516,-0.030437350273132324
1659026353005139700,7.0431396484375,-0.003597259521484375,0.07638129591941833,-0.06147658824920654
1659026353014810000,7.05281005859375,-0.06790637969970703,0.0917765200138092,-0.0015363693237304688
1659026353024480300,7.062480224609375,-0.0543365478515625,0.04807385802268982,0.014168381690979004
1659026353034150700,7.072150634765625,-0.008787155151367188,0.022198498249053955,-0.052909016609191895
1659026353043821000,7.081821044921875,0.036391258239746094,-0.020204275846481323,-0.14445459842681885
1659026353053491500,7.091491455078125,-0.012097358703613281,-0.08130320906639099,-0.22345101833343506
1659026353063161900,7.101161865234375,0.003276824951171875,-0.13883015513420105,-0.3634272813796997
1659026353072832000,7.11083203125,0.0821676254272461,-0.20253725349903107,-0.47116637229919434
1659026353082502400,7.12050244140625,0.20990657806396484,-0.2829509973526001,-0.4068264961242676
1659026353092172800,7.1301728515625,0.16235733032226562,-0.37535035610198975,-0.36272430419921875
1659026353101843200,7.13984326171875,0.18811988830566406,-0.39403069019317627,-0.3605724573135376
1659026353111513600,7.149513671875,0.3875265121459961,-0.3929584324359894,-0.3671989440917969
1659026353121183700,7.159183837890625,0.5365924835205078,-0.47931939363479614,-0.41719889640808105
1659026353130854100,7.168854248046875,0.531346321105957,-0.6150617003440857,-0.5141091346740723
1659026353140524500,7.178524658203125,0.3733024597167969,-0.7047908306121826,-0.5180537104606628
1659026353150195000,7.18819482421875,0.13971233367919922,-0.8786513805389404,-0.8031622171401978
1659026353159865300,7.197865234375,0.2747001647949219,-0.9815044403076172,-1.8879634141921997
1659026353169535500,7.207535400390625,0.5589170455932617,-0.849164605140686,-2.601167678833008
1659026353179206100,7.2172060546875,0.846343994140625,-0.7209016680717468,-2.9398887157440186
1659026353188876300,7.226876220703125,0.6197443008422852,-0.5735877752304077,-3.316112995147705
1659026353198546700,7.236546630859375,0.38387107849121094,-0.508580207824707,-3.6294357776641846
1659026353208217000,7.246217041015625,0.5814285278320312,-0.7162095308303833,-3.581934690475464
1659026353217887500,7.255887451171875,0.6726655960083008,-1.073357343673706,-3.3553202152252197
1659026353227558000,7.265557861328125,0.7360363006591797,-1.2217674255371094,-3.27773118019104
1659026353237228000,7.27522802734375,0.8488054275512695,-0.8428117036819458,-3.3216960430145264
1659026353246898400,7.2848984375,0.9332199096679688,-0.31499677896499634,-3.507514715194702
1659026353256568800,7.29456884765625,1.2912473678588867,-0.28961366415023804,-3.963726043701172
1659026353266239200,7.3042392578125,1.318450927734375,-0.29622578620910645,-4.319271564483643
1659026353275909600,7.31390966796875,1.2425031661987305,-0.3925631642341614,-4.3808512687683105
1659026353285579800,7.323579833984375,1.149622917175293,-0.5745698809623718,-4.307572364807129
1659026353295250200,7.333250244140625,0.8168325424194336,-0.688562273979187,-4.453704357147217
1659026353304920600,7.342920654296875,0.4295063018798828,-0.9277563095092773,-4.515833377838135
1659026353314591000,7.352591064453125,0.13176631927490234,-1.1486456394195557,-4.503499984741211
1659026353324261000,7.36226123046875,0.06841468811035156,-1.3581489324569702,-4.3970818519592285
1659026353333931800,7.371931884765625,0.12633323669433594,-1.5214776992797852,-4.222895622253418
1659026353343602000,7.381601806640625,0.1558675765991211,-1.569623589515686,-4.111703872680664
1659026353353272300,7.391272216796875,0.1464700698852539,-1.613200068473816,-4.129688262939453
1659026353362942700,7.400942626953125,0.029250144958496094,-1.6599652767181396,-4.088111877441406
1659026353372613000,7.410613037109375,-0.11672496795654297,-1.83207368850708,-3.9964096546173096
1659026353382283500,7.420283447265625,-0.1924762725830078,-2.090773820877075,-3.92379093170166
1659026353391953700,7.42995361328125,-0.10867881774902344,-2.2761335372924805,-3.902839422225952
1659026353401624000,7.4396240234375,-0.17485332489013672,-2.5783045291900635,-3.544616222381592
1659026353411294500,7.44929443359375,-0.2529277801513672,-3.0618488788604736,-3.0225396156311035
1659026353420964900,7.45896484375,-0.3960113525390625,-3.45528507232666,-2.5712337493896484
1659026353430635300,7.46863525390625,-0.47032642364501953,-3.801523208618164,-2.0819334983825684
1659026353440305400,7.478305419921875,-0.44512271881103516,-3.9192776679992676,-1.6489441394805908
1659026353449975800,7.487975830078125,-0.5114612579345703,-3.649461269378662,-1.639777660369873
1659026353459646200,7.497646240234375,-0.4451427459716797,-3.6380062103271484,-1.544771671295166
1659026353469316600,7.507316650390625,-0.2574625015258789,-3.81516170501709,-1.3539659976959229
1659026353478987000,7.516987060546875,-0.2948627471923828,-3.8847126960754395,-1.287354826927185
1659026353488657200,7.5266572265625,-0.635563850402832,-3.96057391166687,-1.1855218410491943
1659026353498327600,7.53632763671875,-0.8919944763183594,-4.048756122589111,-1.0296475887298584
1659026353507998000,7.545998046875,-0.9179410934448242,-4.116819381713867,-0.8309595584869385
1659026353517668400,7.55566845703125,-0.6942148208618164,-4.34904670715332,-0.6163784265518188
1659026353527338800,7.5653388671875,-0.4258279800415039,-4.603889465332031,-0.4314075708389282
1659026353537009200,7.575009033203125,-0.36810970306396484,-4.780044078826904,-0.18337106704711914
1659026353546679300,7.58467919921875,-0.2733774185180664,-4.8882951736450195,0.025365352630615234
1659026353556349700,7.594349609375,-0.12365245819091797,-4.884185314178467,0.2150062918663025
1659026353566020000,7.60402001953125,0.047715187072753906,-4.74495792388916,0.43397146463394165
1659026353575690500,7.6136904296875,0.2829256057739258,-4.623945713043213,0.6849331855773926
1659026353585361000,7.62336083984375,0.5099716186523438,-4.555727005004883,0.8344431519508362
1659026353595031000,7.633031005859375,0.6438016891479492,-4.610112190246582,1.033098816871643
1659026353604701400,7.642701416015625,0.7889060974121094,-4.671048641204834,1.3477566242218018
1659026353614371800,7.652371826171875,1.1575813293457031,-4.823847770690918,1.601932168006897
1659026353624042200,7.662042236328125,1.6028194427490234,-4.922098159790039,1.5865604877471924
1659026353633712600,7.671712646484375,1.8235387802124023,-4.938240051269531,1.4456408023834229
1659026353643382800,7.6813828125,1.864206314086914,-4.847133636474609,1.322026252746582
1659026353653053400,7.691053466796875,1.7179679870605469,-4.748737812042236,1.2684228420257568
1659026353662723600,7.7007236328125,1.544999122619629,-4.852667808532715,1.2540311813354492
1659026353672394000,7.71039404296875,1.4128179550170898,-5.0250468254089355,1.3029074668884277
1659026353682064400,7.720064453125,1.5636396408081055,-5.000605583190918,1.4174854755401611
1659026353691734800,7.72973486328125,1.6626472473144531,-4.854310512542725,1.4989547729492188
1659026353701405200,7.7394052734375,1.641153335571289,-4.719616413116455,1.4810115098953247
1659026353711075300,7.749075439453125,1.5899219512939453,-4.558318138122559,1.4165018796920776
1659026353720745700,7.758745849609375,1.639998435974121,-4.335367679595947,1.1309351921081543
1659026353730416000,7.768416015625,1.8554315567016602,-4.235872745513916,0.935956597328186
1659026353740086500,7.77808642578125,1.7208013534545898,-4.0627899169921875,0.7022793889045715
1659026353749756700,7.787756591796875,1.4498538970947266,-3.9944095611572266,0.3490017056465149
1659026353759427000,7.797427001953125,1.0263214111328125,-4.237494468688965,0.37087440490722656
1659026353769097500,7.807097412109375,0.7961969375610352,-4.685325622558594,0.7104471921920776
1659026353778768000,7.816767822265625,0.44643592834472656,-4.844589710235596,0.6881229281425476
1659026353788438300,7.826438232421875,0.06792259216308594,-4.926466464996338,0.5955108404159546
1659026353798108400,7.8361083984375,-0.16010284423828125,-4.968003273010254,0.8888133764266968
1659026353807778800,7.84577880859375,-0.1750345230102539,-4.8429765701293945,1.3495333194732666
1659026353817449200,7.85544921875,0.01384735107421875,-4.429505348205566,1.5956652164459229
1659026353827119600,7.86511962890625,0.205413818359375,-4.05649471282959,1.5501987934112549
1659026353836790000,7.8747900390625,0.2469024658203125,-3.848219156265259,1.4830589294433594
1659026353846460400,7.88446044921875,0.013731956481933594,-3.7915143966674805,1.6414148807525635
1659026353856130800,7.894130859375,0.09899425506591797,-3.8477532863616943,1.770668864250183
1659026353865801000,7.903801025390625,0.004660606384277344,-3.7016079425811768,1.5362322330474854
1659026353875471400,7.913471435546875,0.024819374084472656,-3.5113892555236816,1.3500088453292847
1659026353885141800,7.923141845703125,-0.2012462615966797,-3.379711151123047,1.398855447769165
1659026353894812200,7.932812255859375,-0.48002147674560547,-3.3242201805114746,1.529811143875122
1659026353904482600,7.942482666015625,-0.4225015640258789,-3.393251419067383,1.6822760105133057
1659026353914152700,7.952152587890625,-0.1741800308227539,-3.5273244380950928,1.726462721824646
1659026353923823000,7.961822998046875,0.024756431579589844,-3.6922833919525146,1.71030855178833
1659026353933493500,7.971493408203125,0.18367385864257812,-3.752200126647949,1.8089972734451294
1659026353943164000,7.981163818359375,0.3277168273925781,-3.576042652130127,1.9162553548812866
1659026353952834300,7.990834228515625,0.6369838714599609,-3.410992383956909,2.0875296592712402
1659026353962504400,8.00050439453125,0.9944581985473633,-3.324727773666382,2.140932083129883
1659026353972174800,8.0101748046875,1.387965202331543,-3.189173698425293,2.0511474609375
1659026353981845200,8.01984521484375,1.4546432495117188,-3.1414995193481445,2.088081121444702
1659026353991515600,8.029515625,1.4774999618530273,-3.0834732055664062,2.1561601161956787
1659026354001186000,8.03918603515625,1.470118522644043,-3.120701789855957,2.1952996253967285
1659026354010856400,8.0488564453125,1.2344884872436523,-3.133951187133789,2.2488129138946533
1659026354020526600,8.058526611328125,1.0736398696899414,-3.123875141143799,2.2499213218688965
1659026354030197000,8.068197021484375,0.9267473220825195,-3.060842752456665,2.202011823654175
1659026354039867400,8.077867431640625,0.8088979721069336,-2.999901533126831,2.0977253913879395
1659026354049537800,8.087537841796875,0.7499704360961914,-2.9755287170410156,2.0549769401550293
1659026354059208200,8.097208251953125,0.694000244140625,-2.9172749519348145,2.1362733840942383
1659026354068878300,8.10687841796875,0.6222906112670898,-2.7568860054016113,2.2488346099853516
1659026354078548700,8.116548828125,0.6496725082397461,-2.644685745239258,2.3548927307128906
1659026354088219100,8.12621923828125,0.6258077621459961,-2.649195671081543,2.4236814975738525
1659026354097889500,8.1358896484375,0.5830173492431641,-2.60048246383667,2.3992815017700195
1659026354107560000,8.145559814453126,0.6969337463378906,-2.4139792919158936,2.184854507446289
1659026354117230000,8.15522998046875,0.7431488037109375,-2.2858822345733643,1.8978224992752075
1659026354126900500,8.164900390625,0.7934656143188477,-2.2750611305236816,1.7324752807617188
1659026354136571000,8.17457080078125,0.8980007171630859,-2.317565679550171,1.6575127840042114
1659026354146241300,8.1842412109375,0.9419784545898438,-2.2750706672668457,1.566589593887329
1659026354155911700,8.19391162109375,0.8955793380737305,-2.2519235610961914,1.5039458274841309
1659026354165582000,8.20358203125,0.7612018585205078,-2.259827136993408,1.4732184410095215
1659026354175252200,8.213252197265625,0.6878223419189453,-2.2947678565979004,1.4165349006652832
1659026354184922600,8.222922607421875,0.580775260925293,-2.271000623703003,1.3640124797821045
1659026354194593000,8.232593017578125,0.39475154876708984,-2.198956251144409,1.3432620763778687
1659026354204263400,8.242263427734375,0.22187137603759766,-2.1252353191375732,1.3328895568847656
1659026354213933800,8.251933837890626,0.11123466491699219,-2.151803970336914,1.2337161302566528
1659026354223604000,8.26160400390625,0.0016613006591796875,-2.1951534748077393,1.125645399093628
1659026354233274400,8.2712744140625,-0.059417724609375,-2.129676103591919,0.9945787191390991
1659026354242944800,8.28094482421875,-0.035155296325683594,-2.006892681121826,0.8134334087371826
1659026354252615200,8.290615234375,0.042453765869140625,-1.8807463645935059,0.6853995323181152
1659026354262285600,8.30028564453125,0.2156219482421875,-1.824995517730713,0.5195279717445374
1659026354271955700,8.309955810546874,0.3388032913208008,-1.7311344146728516,0.34700652956962585
1659026354281626000,8.319626220703125,0.43969249725341797,-1.6900502443313599,0.33666548132896423
1659026354291296500,8.329296630859375,0.2714099884033203,-1.510359525680542,0.20620815455913544
1659026354300967000,8.338966796875,0.1591787338256836,-1.5726397037506104,0.48235809803009033
1659026354310637300,8.34863720703125,0.08522415161132812,-1.6038215160369873,0.3281049430370331
1659026354320307700,8.3583076171875,-0.3802824020385742,-1.6371071338653564,0.3500119149684906
1659026354329977900,8.367977783203125,-0.41231727600097656,-1.621187686920166,0.5721109509468079
1659026354339648300,8.377648193359375,-0.3603534698486328,-1.5590318441390991,0.5164181590080261
1659026354349318700,8.387318603515626,-0.38707828521728516,-1.6426918506622314,0.3466622829437256
1659026354358989000,8.396989013671876,-0.5460424423217773,-1.6993145942687988,0.1751156449317932
1659026354368659500,8.406659423828126,-0.581782341003418,-1.6600687503814697,0.09593528509140015
1659026354378329600,8.41632958984375,-0.5222434997558594,-1.589347243309021,0.03986862301826477
1659026354388000000,8.426,-0.3078899383544922,-1.7329952716827393,0.021889805793762207
1659026354397670400,8.43567041015625,-0.16472244262695312,-1.862788200378418,0.07851290702819824
1659026354407340800,8.4453408203125,-0.18837642669677734,-1.97920823097229,0.2068486213684082
1659026354417011200,8.45501123046875,-0.2534198760986328,-1.9247344732284546,0.2810172438621521
1659026354426681300,8.464681396484375,-0.2439861297607422,-1.8617687225341797,0.2663792371749878
1659026354436351700,8.474351806640625,-0.15041637420654297,-1.934105634689331,0.18632972240447998
1659026354446022100,8.484022216796875,-0.012096405029296875,-1.9530850648880005,0.09475958347320557
1659026354455692500,8.493692626953125,0.09811210632324219,-1.890345573425293,-0.013294875621795654
1659026354465363000,8.503363037109375,0.16475963592529297,-1.8701906204223633,-0.03836217522621155
1659026354475033000,8.513033203125,0.1963663101196289,-1.897662878036499,-0.047263771295547485
1659026354484703500,8.522703369140626,0.3782634735107422,-1.8488166332244873,-0.08429199457168579
1659026354494374000,8.532373779296876,0.5958328247070312,-1.8136776685714722,-0.12775471806526184
1659026354504044300,8.542044189453126,0.7657155990600586,-1.8311635255813599,-0.1659909188747406
1659026354513714700,8.551714599609374,0.7730083465576172,-1.8462238311767578,-0.12237730622291565
1659026354523385000,8.561385009765624,0.6699981689453125,-1.811511516571045,0.0487273633480072
1659026354533055200,8.57105517578125,0.5159292221069336,-1.804892659187317,0.2487286925315857
1659026354542725600,8.5807255859375,0.5258579254150391,-1.7777968645095825,0.2732067108154297
1659026354552396000,8.59039599609375,0.686650276184082,-1.6916792392730713,0.15474964678287506
1659026354562066400,8.60006640625,0.732330322265625,-1.6187067031860352,0.037070706486701965
1659026354571736800,8.60973681640625,0.6776695251464844,-1.5608344078063965,-0.02899254858493805
1659026354581407000,8.619406982421875,0.5866193771362305,-1.55543851852417,-0.11185335367918015
1659026354591077400,8.629077392578125,0.5184555053710938,-1.540663242340088,-0.17138084769248962
1659026354600747800,8.638747802734375,0.5173578262329102,-1.560323715209961,-0.19294258952140808
1659026354610418200,8.648418212890626,0.46337032318115234,-1.577495813369751,-0.14932861924171448
1659026354620088600,8.658088623046876,0.4409618377685547,-1.583335041999817,-0.03667321801185608
1659026354629758700,8.6677587890625,0.3990459442138672,-1.5899308919906616,0.06595014035701752
1659026354639429000,8.67742919921875,0.40853404998779297,-1.5889503955841064,0.08085517585277557
1659026354649099500,8.687099609375,0.3849773406982422,-1.5646352767944336,0.05822567641735077
1659026354658770000,8.69677001953125,0.3229560852050781,-1.5082416534423828,0.07747888565063477
1659026354668440300,8.7064404296875,0.2502555847167969,-1.484557867050171,0.18340641260147095
1659026354678110700,8.71611083984375,0.1459331512451172,-1.530116319656372,0.34211212396621704
1659026354687780900,8.72578076171875,0.09635353088378906,-1.5459833145141602,0.4859859347343445
1659026354697451300,8.735451171875,0.015813827514648438,-1.5166159868240356,0.5437683463096619
1659026354707121700,8.74512158203125,-0.048163414001464844,-1.5244543552398682,0.5461552143096924
1659026354716792000,8.7547919921875,-0.05940437316894531,-1.6250336170196533,0.5757790207862854
1659026354726462500,8.76446240234375,-0.03412437438964844,-1.6187231540679932,0.6377067565917969
1659026354736132600,8.774132568359375,0.029402732849121094,-1.5530750751495361,0.776568591594696
1659026354745803000,8.783802978515626,0.03882026672363281,-1.4882382154464722,0.8837289214134216
1659026354755473400,8.793473388671876,0.03972625732421875,-1.3700895309448242,0.8801389932632446
1659026354765143800,8.803143798828126,0.06638908386230469,-1.3338578939437866,0.8496503829956055
1659026354774814200,8.812814208984374,0.060794830322265625,-1.2435152530670166,0.8692781925201416
1659026354784484400,8.822484375,0.09883403778076172,-1.06477689743042,0.8721698522567749
1659026354794154800,8.83215478515625,0.2244853973388672,-1.0177001953125,0.8381878733634949
1659026354803825200,8.8418251953125,0.35282135009765625,-1.1115784645080566,0.8258237838745117
1659026354813495600,8.85149560546875,0.3179435729980469,-1.2035472393035889,0.7863575220108032
1659026354823166000,8.861166015625,0.16957855224609375,-1.1671416759490967,0.7806938290596008
1659026354832836400,8.87083642578125,0.05308246612548828,-1.1089221239089966,0.8061421513557434
1659026354842506500,8.880506591796875,-0.0015239715576171875,-1.0838775634765625,0.8459182381629944
1659026354852177000,8.890177001953125,0.04595470428466797,-1.1018929481506348,0.8560192584991455
1659026354861847300,8.899847412109375,0.1020822525024414,-1.1488962173461914,0.9450005292892456
1659026354871517700,8.909517578125,0.08437156677246094,-1.1811718940734863,1.0853662490844727
1659026354881188000,8.91918798828125,0.025781631469726562,-1.1983630657196045,1.232654094696045
1659026354890858200,8.928858154296876,-0.03185844421386719,-1.186007022857666,1.2505910396575928
1659026354900528600,8.938528564453126,0.039641380310058594,-1.1638312339782715,1.2291127443313599
1659026354910199000,8.948198974609374,0.30393123626708984,-1.2019574642181396,1.1944550275802612
1659026354919869400,8.957869384765624,0.4930849075317383,-1.2964810132980347,1.1769084930419922
1659026354929539800,8.967539794921874,0.47902488708496094,-1.2716223001480103,1.1576076745986938
1659026354939210000,8.9772099609375,0.42990589141845703,-1.1010785102844238,1.162155270576477
1659026354948880400,8.98688037109375,0.2816581726074219,-0.9708529710769653,1.2275437116622925
1659026354958550800,8.99655078125,0.08414745330810547,-0.8431106209754944,1.2701170444488525
1659026354968221200,9.00622119140625,-0.035986900329589844,-0.635712742805481,1.146971583366394
1659026354977891300,9.015891357421875,-0.0117950439453125,-0.4705487787723541,0.9994422793388367
1659026354987562000,9.02556201171875,-0.023250579833984375,-0.36753082275390625,0.880854070186615
1659026354997232000,9.035232177734375,-0.08381843566894531,-0.3091537356376648,0.8341842293739319
1659026355006902500,9.044902587890626,-0.1597299575805664,-0.36157283186912537,0.8277426958084106
1659026355016573000,9.054572998046876,-0.3025341033935547,-0.3802103102207184,0.7857262492179871
1659026355026243300,9.064243408203126,-0.5241518020629883,-0.32455354928970337,0.7129684090614319
1659026355035913700,9.073913818359374,-0.5857086181640625,-0.33028650283813477,0.6142081618309021
1659026355045584000,9.083583984375,-0.5052099227905273,-0.39190107583999634,0.5260730385780334
1659026355055254300,9.093254150390624,-0.40146827697753906,-0.3718424439430237,0.475135862827301
1659026355064924700,9.102924560546874,-0.31363582611083984,-0.27448225021362305,0.4453410506248474
1659026355074595000,9.112594970703125,-0.1367197036743164,-0.1961267739534378,0.46278801560401917
1659026355084265200,9.12226513671875,-0.09926319122314453,-0.2541348338127136,0.541735827922821
1659026355093935600,9.131935546875,-0.11305713653564453,-0.3041701018810272,0.6277203559875488
1659026355103606000,9.14160595703125,-0.05251026153564453,-0.3099128305912018,0.7110461592674255
1659026355113276400,9.1512763671875,-0.08826541900634766,-0.29891932010650635,0.7313233017921448
1659026355122946800,9.16094677734375,-0.19992637634277344,-0.28043270111083984,0.6894075274467468
1659026355132617000,9.170616943359375,-0.26500797271728516,-0.2790416181087494,0.6631917953491211
1659026355142287400,9.180287353515626,-0.1571483612060547,-0.27521637082099915,0.6069565415382385
1659026355151957800,9.189957763671876,-0.07448005676269531,-0.2918856739997864,0.5671802759170532
1659026355161628200,9.199628173828126,0.012816429138183594,-0.3720970153808594,0.6547212600708008
1659026355171298600,9.209298583984374,0.039897918701171875,-0.4206448793411255,0.8096213340759277
1659026355180969000,9.218968994140624,0.026548385620117188,-0.4105982780456543,0.9266557693481445
1659026355190639400,9.228639404296874,0.04871940612792969,-0.45251649618148804,1.0219323635101318
1659026355200309500,9.2383095703125,0.08349800109863281,-0.4871984124183655,1.0655466318130493
1659026355209980000,9.24797998046875,0.09427833557128906,-0.44189321994781494,1.0652263164520264
1659026355219650300,9.257650390625,0.14502525329589844,-0.44004228711128235,1.0895441770553589
1659026355229320700,9.26732080078125,0.14560890197753906,-0.48482561111450195,1.2135074138641357
1659026355238990800,9.276990966796875,0.08856010437011719,-0.44018441438674927,1.3715887069702148
1659026355248661200,9.2866611328125,0.007719993591308594,-0.4398633539676666,1.4397393465042114
1659026355258331600,9.29633154296875,0.03400135040283203,-0.5066457986831665,1.412355661392212
1659026355268002000,9.306001953125,0.16439437866210938,-0.4154021739959717,1.2510629892349243
1659026355277672400,9.31567236328125,0.26892757415771484,-0.23016445338726044,1.0488044023513794
1659026355287342600,9.325342529296876,0.3704566955566406,-0.16518661379814148,0.829810619354248
1659026355297013000,9.335012939453126,0.4478931427001953,-0.1674230694770813,0.6906867623329163
1659026355306683400,9.344683349609374,0.5863552093505859,-0.11191100627183914,0.6234930753707886
1659026355316353800,9.354353759765624,0.6354875564575195,0.019231587648391724,0.5245547294616699
1659026355326024200,9.364024169921874,0.6121463775634766,0.0899280309677124,0.4893990755081177
1659026355335694300,9.3736943359375,0.4881734848022461,0.07820175588130951,0.519635796546936
1659026355345364700,9.38336474609375,0.24171066284179688,0.010548830032348633,0.5701792240142822
1659026355355035100,9.39303515625,-0.06288433074951172,0.012377679347991943,0.5281417369842529
1659026355364705500,9.40270556640625,-0.2306051254272461,-0.00695955753326416,0.4017913341522217
1659026355374376000,9.4123759765625,-0.2944068908691406,-0.10431614518165588,0.21553803980350494
1659026355384046300,9.42204638671875,-0.21720504760742188,-0.10058712959289551,0.019984185695648193
1659026355393716500,9.431716552734375,-0.031884193420410156,-0.10171684622764587,-0.18630459904670715
1659026355403387000,9.441386962890626,0.14689350128173828,-0.0470905601978302,-0.32579004764556885
1659026355413057300,9.451057373046876,0.29932403564453125,0.0360473096370697,-0.3333418071269989
1659026355422727700,9.460727783203126,0.28835296630859375,-0.07225024700164795,-0.16821080446243286
1659026355432398000,9.470398193359374,0.05076789855957031,-0.3834275007247925,0.29924166202545166
1659026355442068200,9.480068115234374,-0.2169361114501953,-0.6901717185974121,0.5094767808914185
1659026355451738600,9.489738525390624,-0.06558704376220703,0.032824039459228516,0.03742989897727966
1659026355461409000,9.499408935546874,-0.7668886184692383,-0.41678959131240845,0.5169275403022766
1659026355471079400,9.509079345703125,-0.5516777038574219,-0.5448729395866394,0.6821140050888062
1659026355480749600,9.51874951171875,-0.5833759307861328,-0.4376022517681122,0.4538026452064514
1659026355490420000,9.528419921875,-0.7616453170776367,-0.41869431734085083,0.25727379322052
1659026355500090400,9.53809033203125,-0.5526161193847656,-0.4893677830696106,0.23398169875144958
1659026355509760800,9.5477607421875,-0.16073989868164062,-0.4931071400642395,0.2350316047668457
1659026355519431200,9.55743115234375,0.007679939270019531,-0.35603687167167664,0.24086251854896545
1659026355529101600,9.5671015625,0.08971691131591797,-0.3430357575416565,0.44072216749191284
1659026355538772000,9.57677197265625,0.09181499481201172,-0.4451749622821808,0.754105806350708
1659026355548442000,9.586442138671876,-0.04669761657714844,-0.43431535363197327,0.8889232873916626
1659026355558112500,9.596112548828126,-0.11520576477050781,-0.4919787645339966,1.0107635259628296
1659026355567783000,9.605782958984374,-0.15276527404785156,-0.5089660286903381,1.0390346050262451
1659026355577453300,9.615453369140624,-0.17421340942382812,-0.5249778628349304,1.0170258283615112
1659026355587123500,9.62512353515625,-0.23521995544433594,-0.545861005783081,0.9450141787528992
1659026355596793900,9.6347939453125,-0.2953205108642578,-0.5438411831855774,0.9367237091064453
1659026355606464300,9.64446435546875,-0.22649192810058594,-0.5259659290313721,0.9230820536613464
1659026355616134700,9.654134765625,-0.1450214385986328,-0.5517815351486206,0.9046570062637329
1659026355625805000,9.66380517578125,-0.07092666625976562,-0.5173421502113342,0.8694379925727844
1659026355635475200,9.67347509765625,0.005581855773925781,-0.44079673290252686,0.8930399417877197
1659026355645145600,9.6831455078125,0.06450366973876953,-0.3820364475250244,0.9700789451599121
1659026355654816000,9.69281591796875,0.0966024398803711,-0.3945787250995636,1.093654990196228
1659026355664486400,9.702486328125,0.1408672332763672,-0.4984138607978821,1.323774814605713
1659026355674156800,9.71215673828125,0.17814064025878906,-0.5774944424629211,1.4987382888793945
1659026355683827000,9.721826904296876,0.2425823211669922,-0.6191489100456238,1.68117356300354
1659026355693497300,9.731497314453126,0.37368106842041016,-0.6708632707595825,1.8109984397888184
1659026355703167700,9.741167724609374,0.45746517181396484,-0.6074315309524536,1.8195916414260864
1659026355712838100,9.750838134765624,0.4243440628051758,-0.48321443796157837,1.769860029220581
1659026355722508500,9.760508544921874,0.2624826431274414,-0.43955039978027344,1.6504006385803223
1659026355732179000,9.770178955078125,0.05774974822998047,-0.4693012833595276,1.5339155197143555
1659026355741849000,9.77984912109375,-0.14681148529052734,-0.5576649308204651,1.4570986032485962
1659026355751519500,9.78951953125,-0.21834087371826172,-0.5726307034492493,1.379972219467163
1659026355761190000,9.79918994140625,-0.1801004409790039,-0.5558938384056091,1.3108971118927002
1659026355770860300,9.8088603515625,-0.09600162506103516,-0.5545576810836792,1.3024519681930542
1659026355780530700,9.81853076171875,0.02643108367919922,-0.458462119102478,1.2877068519592285
1659026355790200800,9.828200927734375,0.17146587371826172,-0.3199527859687805,1.2262778282165527
1659026355799871200,9.837871337890626,0.3446617126464844,-0.2543199062347412,1.1242024898529053
1659026355809541600,9.847541748046876,0.34784889221191406,-0.22784340381622314,0.964443027973175
1659026355819212000,9.8572119140625,0.1942119598388672,-0.18488167226314545,0.8392601609230042
1659026355828882200,9.866882080078126,0.015380859375,-0.14346128702163696,0.7256714105606079
1659026355838552600,9.876552490234374,-0.18380165100097656,-0.09237349033355713,0.5830979347229004
1659026355848223000,9.886222900390624,-0.21400737762451172,-0.027963876724243164,0.4550137519836426
1659026355857893400,9.895893310546874,-0.10800457000732422,0.01877152919769287,0.46682190895080566
1659026355867563800,9.905563720703125,0.07970523834228516,0.09998807311058044,0.5745712518692017
1659026355877234200,9.915234130859375,0.25108814239501953,0.15936344861984253,0.7135674357414246
1659026355886904600,9.924904541015625,0.43707847595214844,0.17382416129112244,0.9041383862495422
1659026355896574700,9.93457470703125,0.5414533615112305,0.10328668355941772,1.0408906936645508
1659026355906245000,9.9442451171875,0.5176706314086914,-0.015171200037002563,1.1365430355072021
1659026355915915500,9.95391552734375,0.5522193908691406,-0.12083199620246887,1.1150505542755127
1659026355925586000,9.9635859375,0.6131963729858398,-0.10414189100265503,0.9640093445777893
1659026355935256000,9.973256103515626,0.5380373001098633,-0.12425726652145386,0.8129318356513977
1659026355944926500,9.982926513671876,0.39762020111083984,-0.2893456816673279,0.785825252532959
1659026355954596900,9.992596923828126,0.24154090881347656,-0.38004690408706665,0.7938807010650635
1659026355964267300,10.002267333984374,0.13370990753173828,-0.36719828844070435,0.7589910626411438
1659026355973937700,10.011937744140624,0.2029266357421875,-0.37268102169036865,0.6628117561340332
1659026355983607800,10.02160791015625,0.2253255844116211,-0.3797445297241211,0.6435801386833191
1659026355993278200,10.0312783203125,0.2794075012207031,-0.3680512011051178,0.6850205659866333
1659026356002948600,10.040948486328125,0.32587623596191406,-0.33663928508758545,0.7773895859718323
1659026356012619000,10.050618896484375,0.3342742919921875,-0.28559786081314087,0.9118989706039429
1659026356022289200,10.0602890625,0.25242137908935547,-0.27983081340789795,0.987332284450531
1659026356031959600,10.06995947265625,0.03955364227294922,-0.29589539766311646,0.9843155145645142
1659026356041630000,10.0796298828125,-0.13767719268798828,-0.2676599621772766,0.985950767993927
1659026356051300400,10.08930029296875,-0.2485189437866211,-0.25594770908355713,1.0412416458129883
1659026356060970800,10.098970703125,-0.3084716796875,-0.2306663691997528,1.0511565208435059
1659026356070641200,10.10864111328125,-0.3703269958496094,-0.17943155765533447,1.1653536558151245
1659026356080311600,10.1183115234375,-0.4328594207763672,-0.14110863208770752,1.367308259010315
1659026356089981700,10.127981689453126,-0.4510173797607422,-0.07592141628265381,1.5851576328277588
1659026356099652000,10.137652099609374,-0.3652048110961914,-0.0032091140747070312,1.7342634201049805
1659026356109322500,10.147322509765624,-0.2916231155395508,0.1672147512435913,1.8646714687347412
1659026356118993000,10.156992919921874,-0.2798032760620117,0.25922322273254395,1.9345296621322632
1659026356128663000,10.1666630859375,-0.21262550354003906,0.2103496789932251,1.9902243614196777
1659026356138333400,10.17633349609375,-0.3397064208984375,0.25013911724090576,1.9384572505950928
1659026356148003800,10.18600390625,-0.32422924041748047,0.19926685094833374,2.120572566986084
1659026356157674200,10.19567431640625,-0.37073612213134766,0.1625128984451294,2.17311954498291
1659026356167344600,10.2053447265625,-0.3776893615722656,0.17422854900360107,2.1461710929870605
1659026356177014800,10.215014892578125,-0.24019241333007812,0.07045894861221313,2.186293125152588
1659026356186685200,10.224685302734375,-0.026683807373046875,-0.07499349117279053,2.2706475257873535
1659026356196355600,10.23435546875,0.2745647430419922,-0.08921962976455688,2.2881603240966797
1659026356206026000,10.24402587890625,0.5655460357666016,-0.05353260040283203,2.2389333248138428
1659026356215696100,10.253696044921876,0.7604522705078125,-0.010726749897003174,2.2258243560791016
1659026356225366500,10.263366455078126,0.8035297393798828,0.029823005199432373,2.19079852104187
1659026356235037000,10.273036865234374,0.7214679718017578,0.13346600532531738,2.104132652282715
1659026356244707300,10.282707275390624,0.6123418807983398,0.18884921073913574,2.002025604248047
1659026356254377700,10.292377685546874,0.40807533264160156,0.27426987886428833,1.8427432775497437
1659026356264048000,10.302048095703125,0.06465625762939453,0.328852117061615,1.7629286050796509
1659026356273718500,10.311718505859375,-0.22921371459960938,0.3002045750617981,1.7592172622680664
1659026356283388700,10.321388671875,-0.30075740814208984,0.2827978730201721,1.721571922302246
1659026356293059000,10.33105908203125,-0.3032512664794922,0.3419509530067444,1.6614326238632202
1659026356302729500,10.3407294921875,-0.2117605209350586,0.44080060720443726,1.6121119260787964
1659026356312400000,10.35039990234375,-0.04545307159423828,0.5277992486953735,1.6091011762619019
1659026356322070000,10.360070068359375,0.0965871810913086,0.6286261677742004,1.553957223892212
1659026356331740400,10.369740478515626,0.15607643127441406,0.661963701248169,1.5038495063781738
1659026356341410800,10.379410888671876,0.13444042205810547,0.6649287343025208,1.359001874923706
1659026356351081200,10.389081298828126,0.0020122528076171875,0.6779581308364868,1.2313382625579834
1659026356360751600,10.398751708984374,-0.2015981674194336,0.7068922519683838,1.1725693941116333
1659026356370421800,10.408421875,-0.4571371078491211,0.5988156199455261,1.1336543560028076
1659026356380092200,10.418092041015624,-0.48169517517089844,0.44526082277297974,1.134074330329895
1659026356389762600,10.427762451171875,-0.3690948486328125,0.4022924304008484,1.1187994480133057
1659026356399433000,10.437432861328125,-0.1364765167236328,0.4362949728965759,1.1052818298339844
1659026356409103000,10.44710302734375,-0.00006198883056640625,0.4115847945213318,1.153587818145752
1659026356418773500,10.4567734375,0.1395101547241211,0.45142602920532227,1.1525930166244507
1659026356428444000,10.46644384765625,0.19878196716308594,0.5039646029472351,1.1731386184692383
1659026356438114300,10.4761142578125,0.15419864654541016,0.5347615480422974,1.2192918062210083
1659026356447784700,10.48578466796875,0.09196281433105469,0.556637704372406,1.198453664779663
1659026356457455000,10.495455078125,0.06826496124267578,0.61189866065979,1.0489234924316406
1659026356467125500,10.50512548828125,0.0709981918334961,0.6442626714706421,0.9217233657836914
1659026356476795600,10.514795654296876,0.07615852355957031,0.6706502437591553,0.8691070079803467
1659026356486466000,10.524466064453126,-0.09647655487060547,0.6906893849372864,0.7631519436836243
1659026356496136400,10.534136474609374,-0.19968509674072266,0.6967585682868958,0.7086681723594666
1659026356505806800,10.543806884765624,-0.22421932220458984,0.7166967391967773,0.6521914601325989
1659026356515477000,10.55347705078125,-0.24896526336669922,0.6921753883361816,0.5673633813858032
1659026356525147400,10.5631474609375,-0.21895694732666016,0.659639298915863,0.4712325930595398
1659026356534817800,10.57281787109375,-0.16530323028564453,0.6390520930290222,0.33434873819351196
1659026356544488200,10.58248828125,-0.09270000457763672,0.6594375371932983,0.2096940577030182
1659026356554158600,10.59215869140625,-0.01895618438720703,0.6426268219947815,0.15568624436855316
1659026356563828700,10.601828857421875,-0.03711700439453125,0.5976992845535278,0.18073278665542603
1659026356573499100,10.6114990234375,-0.07407569885253906,0.5620485544204712,0.20064422488212585
1659026356583169500,10.62116943359375,-0.12503814697265625,0.5396744012832642,0.23758764564990997
1659026356592840000,10.63083984375,-0.09818649291992188,0.4951344132423401,0.2727041244506836
1659026356602510000,10.640510009765626,-0.09759044647216797,0.5158475637435913,0.24666939675807953
1659026356612180700,10.6501806640625,-0.15549564361572266,0.5691099762916565,0.18878626823425293
1659026356621851000,10.659850830078126,-0.15365123748779297,0.5056948661804199,0.2219252586364746
1659026356631521300,10.669521240234374,-0.13038253784179688,0.41760629415512085,0.2669890224933624
1659026356641191700,10.679191650390624,-0.07858085632324219,0.42613381147384644,0.2870856523513794
1659026356650862000,10.688862060546874,0.09726333618164062,0.4702930450439453,0.31402358412742615
1659026356660532200,10.6985322265625,0.20477867126464844,0.45901191234588623,0.36370500922203064
1659026356670202600,10.70820263671875,0.13556385040283203,0.4950682520866394,0.3676762878894806
1659026356679873000,10.717873046875,0.032016754150390625,0.5005342960357666,0.3192235231399536
1659026356689543400,10.72754345703125,-0.055843353271484375,0.4954235553741455,0.26428091526031494
1659026356699213800,10.7372138671875,-0.1423959732055664,0.44765132665634155,0.23607391119003296
1659026356708884000,10.746884033203125,-0.20563983917236328,0.40260499715805054,0.2624030113220215
1659026356718554400,10.756554443359375,-0.22687911987304688,0.39385050535202026,0.24550244212150574
1659026356728224800,10.766224853515626,-0.16209793090820312,0.4095379114151001,0.1828235387802124
1659026356737895200,10.775895263671876,-0.012547492980957031,0.407362699508667,0.055731505155563354
1659026356747565300,10.7855654296875,0.1875600814819336,0.38420015573501587,-0.003941893577575684
1659026356757235700,10.795235595703126,0.34214305877685547,0.33452504873275757,-0.004235178232192993
1659026356766906000,10.804906005859374,0.36016082763671875,0.3108813762664795,0.057191550731658936
1659026356776576500,10.814576416015624,0.3096656799316406,0.3130664825439453,0.15601509809494019
1659026356786247000,10.824246826171875,0.2317037582397461,0.28289681673049927,0.24800866842269897
1659026356795917000,10.8339169921875,0.1773214340209961,0.26315557956695557,0.313040554523468
1659026356805587700,10.843587646484375,0.1403188705444336,0.3523595929145813,0.277707576751709
1659026356815257900,10.8532578125,0.22991466522216797,0.46559733152389526,0.0981903076171875
1659026356824928300,10.86292822265625,0.27810001373291016,0.4482032060623169,-0.018321484327316284
1659026356834598700,10.8725986328125,0.20081520080566406,0.39547985792160034,-0.04906657338142395
1659026356844269000,10.88226904296875,0.1236419677734375,0.33394938707351685,0.015548616647720337
1659026356853939200,10.891939208984375,0.04073810577392578,0.2865343689918518,0.13255876302719116
1659026356863609600,10.901609619140626,-0.11008739471435547,0.24848932027816772,0.2990891933441162
1659026356873280000,10.911280029296876,-0.23826026916503906,0.23511183261871338,0.42088401317596436
1659026356882950400,10.920950439453126,-0.3452796936035156,0.2821136713027954,0.4445917010307312
1659026356892620800,10.930620849609374,-0.41866302490234375,0.3322809338569641,0.41540220379829407
1659026356902291000,10.940291015625,-0.45073604583740234,0.42375558614730835,0.32151225209236145
1659026356911961300,10.94996142578125,-0.45259666442871094,0.4674856662750244,0.20769494771957397
1659026356921631700,10.9596318359375,-0.5339698791503906,0.46921610832214355,0.17440371215343475
1659026356931302100,10.96930224609375,-0.44640064239501953,0.42244136333465576,0.19021981954574585
1659026356940972300,10.97897216796875,-0.27123546600341797,0.5433657169342041,0.27063319087028503
1659026356950642700,10.988642578125,-0.2762413024902344,0.545066237449646,0.5488779544830322
1659026356960313000,10.99831298828125,-0.6053886413574219,0.30914270877838135,0.9659994840621948
1659026356969983500,11.0079833984375,-0.6517601013183594,1.4971115589141846,0.9671375751495361
1659026356979654000,11.01765380859375,-2.258204460144043,0.1278766393661499,0.6820379495620728
1659026356989324000,11.027323974609375,-5.282505035400391,-1.7974917888641357,0.6649605631828308
1659026356998994400,11.036994384765626,-1.3785066604614258,-0.5866920948028564,-0.16829103231430054
1659026357008664800,11.046664794921876,-0.6584634780883789,1.4070779085159302,-1.6551169157028198
1659026357018335200,11.056335205078126,-1.2875661849975586,1.9707151651382446,-1.9619468450546265
1659026357028005600,11.066005615234374,-0.7712488174438477,0.2844201326370239,-0.17564737796783447
1659026357037676000,11.075676025390624,0.7226371765136719,-0.25184059143066406,1.3460896015167236
1659026357047346200,11.08534619140625,1.4880304336547852,0.378706693649292,1.8431330919265747
1659026357057016600,11.0950166015625,1.6079216003417969,0.4532289505004883,1.7161861658096313
1659026357066687000,11.10468701171875,1.8905582427978516,0.06302309036254883,1.2416515350341797
1659026357076357400,11.114357421875,1.0729684829711914,-0.5598920583724976,0.7472928762435913
