time,seconds_elapsed,z,y,x
1659026346043607600,0.081607666015625,9.753145217895508,0.3086741268634796,0.01196411345154047
1659026346053278000,0.09127783203125,9.789037704467773,0.30987054109573364,0.008374879136681557
1659026346062948400,0.1009482421875,9.765109062194824,0.2955136001110077,-0.009571290574967861
1659026346072618500,0.110618408203125,9.821340560913086,0.2919243574142456,-0.010767702013254166
1659026346082289000,0.120288818359375,9.791430473327637,0.2871387302875519,-0.009571290574967861
1659026346091959300,0.129959228515625,9.796216011047363,0.30987054109573364,-0.005982056725770235
1659026346101629700,0.139629638671875,9.790233612060547,0.30149564146995544,0.015553346835076809
1659026346111300000,0.149300048828125,9.773484230041504,0.3206382393836975,0.0023928226437419653
1659026346120970500,0.158970458984375,9.779465675354004,0.30508488416671753,-0.010767702013254166
1659026346130641000,0.168640869140625,9.817750930786133,0.3170489966869354,-0.0023928226437419653
1659026346140311000,0.17831103515625,9.795019149780273,0.31465616822242737,0.010767702013254166
1659026346149981400,0.1879814453125,9.836894035339355,0.2919243574142456,0.009571290574967861
1659026346159651800,0.19765185546875,9.783055305480957,0.31106695532798767,0.017946170642971992
1659026346169322200,0.207322265625,9.789037704467773,0.3026920557022095,0.017946170642971992
1659026346178992400,0.216992431640625,9.77707290649414,0.3170489966869354,0.02751746028661728
1659026346188662800,0.226662841796875,9.765109062194824,0.2967100143432617,0.01196411345154047
1659026346198333200,0.236333251953125,9.779465675354004,0.3002992272377014,0.014356935396790504
1659026346208003600,0.246003662109375,9.796216011047363,0.28115665912628174,0.014356935396790504
1659026346217674000,0.255674072265625,9.787840843200684,0.2919243574142456,0.019142581149935722
1659026346227344100,0.26534423828125,9.79262638092041,0.30149564146995544,0.005982056725770235
1659026346237014500,0.2750146484375,9.789037704467773,0.30987054109573364,0
1659026346246685000,0.284684814453125,9.784252166748047,0.3074777126312256,0
1659026346256355300,0.294355224609375,9.77826976776123,0.3158525824546814,-0.005982056725770235
1659026346266025700,0.304025634765625,9.80100154876709,0.3158525824546814,-0.007178467698395252
1659026346275695900,0.31369580078125,9.812965393066406,0.30987054109573364,-0.017946170642971992
1659026346285366500,0.323366455078125,9.804591178894043,0.3158525824546814,-0.003589233849197626
1659026346295036700,0.33303662109375,9.7998046875,0.3086741268634796,-0.005982056725770235
1659026346304707000,0.34270703125,9.789037704467773,0.30149564146995544,0.005982056725770235
1659026346314377500,0.35237744140625,9.787840843200684,0.31106695532798767,-0.016749758273363113
1659026346324048000,0.3620478515625,9.805787086486816,0.2967100143432617,-0.013160524889826775
1659026346333718300,0.37171826171875,9.812965393066406,0.2967100143432617,-0.004785645287483931
1659026346343388400,0.381388427734375,9.798608779907227,0.3038884699344635,-0.0023928226437419653
1659026346353058800,0.391058837890625,9.803394317626953,0.3026920557022095,-0.0011964113218709826
1659026346362729200,0.400729248046875,9.784252166748047,0.30987054109573364,-0.009571290574967861
1659026346372399600,0.410399658203125,9.790233612060547,0.30149564146995544,0.010767702013254166
1659026346382069800,0.42006982421875,9.78544807434082,0.30149564146995544,0.007178467698395252
1659026346391740200,0.429740234375,9.783055305480957,0.31345975399017334,0.008374879136681557
1659026346401410600,0.43941064453125,9.80219841003418,0.30987054109573364,0.005982056725770235
1659026346411081000,0.4490810546875,9.80100154876709,0.3122633695602417,0.0011964113218709826
1659026346420751400,0.45875146484375,9.810572624206543,0.3278166949748993,0.015553346835076809
1659026346430421500,0.46842138671875,9.787840843200684,0.30987054109573364,0.01196411345154047
1659026346440092200,0.478092041015625,9.806983947753906,0.2955136001110077,0.017946170642971992
1659026346449762300,0.48776220703125,9.796216011047363,0.3026920557022095,0.004785645287483931
1659026346459432700,0.4974326171875,9.787840843200684,0.3122633695602417,0.008374879136681557
1659026346469103000,0.50710302734375,9.781859397888184,0.2883351147174835,0.009571290574967861
1659026346478773500,0.5167734375,9.78664493560791,0.30628129839897156,0.009571290574967861
1659026346488444000,0.52644384765625,9.739984512329102,0.3002992272377014,0.0011964113218709826
1659026346498114000,0.536114013671875,9.806983947753906,0.3002992272377014,0.004785645287483931
1659026346507784400,0.545784423828125,9.811769485473633,0.30149564146995544,0.0011964113218709826
1659026346517454800,0.555454833984375,9.822537422180176,0.2967100143432617,-0.003589233849197626
1659026346527125200,0.565125244140625,9.81535816192627,0.31465616822242737,-0.009571290574967861
1659026346536795400,0.57479541015625,9.814162254333496,0.3122633695602417,-0.009571290574967861
1659026346546465800,0.5844658203125,9.7998046875,0.3170489966869354,-0.0023928226437419653
1659026346556136200,0.59413623046875,9.791430473327637,0.31465616822242737,-0.0023928226437419653
1659026346565806600,0.603806640625,9.796216011047363,0.2835494875907898,0.016749758273363113
1659026346575477000,0.61347705078125,9.77707290649414,0.18305093050003052,0.17108681797981262
1659026346585147100,0.623147216796875,9.818947792053223,0.061016976833343506,0.2919243574142456
1659026346594817500,0.632817626953125,9.839286804199219,-0.007178467698395252,0.3924229145050049
1659026346604488000,0.642488037109375,9.82373332977295,0.10169496387243271,0.30508488416671753
1659026346614158300,0.652158447265625,9.810572624206543,0.2105683982372284,0.12801600992679596
1659026346623828700,0.661828857421875,9.754341125488281,0.3445664644241333,-0.01196411345154047
1659026346633499100,0.6714990234375,9.77109146118164,0.34695929288864136,-0.019142581149935722
1659026346643169500,0.68116943359375,9.780662536621094,0.39481574296951294,-0.1052841991186142
1659026346652839700,0.690839599609375,9.791430473327637,0.4055834412574768,-0.13639089465141296
1659026346662510000,0.700510009765625,9.795019149780273,0.3840480446815491,-0.1339980661869049
1659026346672180500,0.710180419921875,9.810572624206543,0.46899324655532837,-0.2512463629245758
1659026346681851000,0.719850830078125,9.796216011047363,0.5216353535652161,-0.30987054109573364
1659026346691521000,0.72952099609375,9.78664493560791,0.4905286431312561,-0.22971096634864807
1659026346701191400,0.73919140625,9.78664493560791,0.3852444589138031,-0.10648060590028763
1659026346710861800,0.74886181640625,9.783055305480957,0.32542386651039124,-0.008374879136681557
1659026346720532200,0.7585322265625,9.7998046875,0.17587246000766754,0.18305093050003052
1659026346730202600,0.76820263671875,9.824930191040039,0.2273181527853012,0.08015955984592438
1659026346739872800,0.777872802734375,9.791430473327637,0.3565305769443512,-0.05742774158716202
1659026346749543200,0.787543212890625,9.784252166748047,0.34217363595962524,-0.02273181453347206
1659026346759213600,0.797213623046875,9.790233612060547,0.38285163044929504,-0.08255238085985184
1659026346768884000,0.806884033203125,9.77707290649414,0.3936193287372589,-0.09690931439399719
1659026346778554400,0.816554443359375,9.765109062194824,0.275174617767334,0.037088751792907715
1659026346788224800,0.826224853515625,9.846465110778809,0.2835494875907898,0.008374879136681557
1659026346797895000,0.83589501953125,9.781859397888184,0.25722843408584595,0.059820566326379776
1659026346807565300,0.8455654296875,9.817750930786133,0.2907279431819916,0.05742774158716202
1659026346817235700,0.855235595703125,9.789037704467773,0.2069791555404663,0.09810572862625122
1659026346826906000,0.864906005859375,9.775876998901367,0.30508488416671753,0.007178467698395252
1659026346836576500,0.874576416015625,9.784252166748047,0.4175475537776947,-0.11844471842050552
1659026346846246700,0.88424658203125,9.81535816192627,0.4043870270252228,-0.11844471842050552
1659026346855917000,0.8939169921875,9.787840843200684,0.28953152894973755,0.014356935396790504
1659026346865587500,0.90358740234375,9.806983947753906,0.30149564146995544,-0.010767702013254166
1659026346875257900,0.9132578125,9.7998046875,0.30149564146995544,0.009571290574967861
1659026346884928300,0.92292822265625,9.797411918640137,0.3074777126312256,-0.003589233849197626
1659026346894598400,0.932598388671875,9.797411918640137,0.2871387302875519,0.0011964113218709826
1659026346904268800,0.942268798828125,9.78664493560791,0.3038884699344635,-0.004785645287483931
1659026346913939200,0.951939208984375,9.806983947753906,0.3517449200153351,-0.04307080805301666
1659026346923609600,0.961609619140625,9.790233612060547,0.33858439326286316,-0.0323031060397625
1659026346933280000,0.971280029296875,9.773484230041504,0.34217363595962524,-0.058624155819416046
1659026346942950100,0.9809501953125,9.762716293334961,0.41515472531318665,-0.12083754688501358
1659026346952620500,0.99062060546875,9.81655502319336,0.4307080805301666,-0.13280165195465088
1659026346962291000,1.000291015625,9.79262638092041,0.44386860728263855,-0.16390834748744965
1659026346971961300,1.00996142578125,9.765109062194824,0.32662028074264526,-0.014356935396790504
1659026346981631700,1.0196318359375,9.822537422180176,0.1818545162677765,0.12203395366668701
1659026346991302100,1.02930224609375,9.834501266479492,0.16031911969184875,0.17587246000766754
1659026347000972300,1.03897216796875,9.806983947753906,0.16271193325519562,0.16151553392410278
1659026347010642700,1.048642578125,9.820143699645996,0.13878370821475983,0.17587246000766754
1659026347020313000,1.05831298828125,9.772287368774414,0.259621262550354,0.06699903309345245
1659026347029983500,1.0679833984375,9.768698692321777,0.2883351147174835,0.02392822690308094
1659026347039654000,1.07765380859375,9.774680137634277,0.29431718587875366,0.02512463741004467
1659026347049324000,1.087323974609375,9.7938232421875,0.30149564146995544,0.02153540402650833
1659026347058994400,1.096994384765625,9.811769485473633,0.3026920557022095,0.01196411345154047
1659026347068664800,1.106664794921875,9.80937671661377,0.3002992272377014,0.005982056725770235
1659026347078335200,1.116335205078125,9.795019149780273,0.30508488416671753,0.004785645287483931
1659026347088005400,1.12600537109375,9.7998046875,0.3074777126312256,-0.005982056725770235
1659026347097675800,1.13567578125,9.7938232421875,0.3122633695602417,-0.0011964113218709826
1659026347107346200,1.14534619140625,9.80937671661377,0.3086741268634796,-0.003589233849197626
1659026347117016600,1.1550166015625,9.80817985534668,0.2955136001110077,0.005982056725770235
1659026347126687000,1.16468701171875,9.787840843200684,0.2991028428077698,-0.014356935396790504
1659026347136357000,1.174357177734375,9.78664493560791,0.30149564146995544,0.0011964113218709826
1659026347146027800,1.18402783203125,9.798608779907227,0.3170489966869354,-0.003589233849197626
1659026347155698000,1.193697998046875,9.796216011047363,0.3086741268634796,0.004785645287483931
1659026347165368300,1.203368408203125,9.812965393066406,0.3038884699344635,-0.009571290574967861
1659026347175038700,1.213038818359375,9.811769485473633,0.2967100143432617,0.015553346835076809
1659026347184709000,1.222709228515625,9.80219841003418,0.2835494875907898,0.005982056725770235
1659026347194379300,1.232379150390625,9.76989459991455,0.2835494875907898,0.0011964113218709826
1659026347204049700,1.242049560546875,9.765109062194824,0.2835494875907898,0.009571290574967861
1659026347213720000,1.251719970703125,9.77826976776123,0.3074777126312256,0.003589233849197626
1659026347223390500,1.261390380859375,9.80817985534668,0.30987054109573364,0.004785645287483931
1659026347233060900,1.271060791015625,9.834501266479492,0.30628129839897156,0.01196411345154047
1659026347242731000,1.28073095703125,9.839286804199219,0.30508488416671753,0.004785645287483931
1659026347252401400,1.2904013671875,9.817750930786133,0.30149564146995544,0.02392822690308094
1659026347262071800,1.30007177734375,9.781859397888184,0.30987054109573364,0.0323031060397625
1659026347271742200,1.3097421875,9.761520385742188,0.2919243574142456,0.02273181453347206
1659026347281412600,1.31941259765625,9.773484230041504,0.3086741268634796,0.010767702013254166
1659026347291082800,1.329082763671875,9.812965393066406,0.2919243574142456,0.009571290574967861
1659026347300753400,1.33875341796875,9.818947792053223,0.3074777126312256,0.004785645287483931
1659026347310423600,1.348423583984375,9.82373332977295,0.30149564146995544,-0.005982056725770235
1659026347320094000,1.358093994140625,9.80219841003418,0.3158525824546814,-0.004785645287483931
1659026347329764400,1.367764404296875,9.796216011047363,0.2967100143432617,-0.008374879136681557
1659026347339434800,1.377434814453125,9.779465675354004,0.29312077164649963,-0.004785645287483931
1659026347349105000,1.38710498046875,9.787840843200684,0.28115665912628174,-0.003589233849197626
1659026347358775300,1.396775390625,9.806983947753906,0.29312077164649963,-0.004785645287483931
1659026347368445700,1.40644580078125,9.81655502319336,0.30149564146995544,0.0011964113218709826
1659026347378116000,1.4161162109375,9.797411918640137,0.3074777126312256,0.009571290574967861
1659026347387786500,1.425786376953125,9.774680137634277,0.30149564146995544,0.013160524889826775
1659026347397456600,1.43545654296875,9.787840843200684,0.30628129839897156,0.003589233849197626
1659026347407127000,1.445126953125,9.797411918640137,0.31465616822242737,0.02392822690308094
1659026347416797400,1.45479736328125,9.805787086486816,0.3026920557022095,0.013160524889826775
1659026347426467800,1.4644677734375,9.811769485473633,0.30149564146995544,0.007178467698395252
1659026347436138200,1.47413818359375,9.803394317626953,0.3002992272377014,0.016749758273363113
1659026347445808400,1.483808349609375,9.79262638092041,0.29312077164649963,0.02632104977965355
1659026347455478800,1.493478759765625,9.76989459991455,0.3038884699344635,0.010767702013254166
1659026347465149200,1.503149169921875,9.779465675354004,0.3002992272377014,0.013160524889826775
1659026347474819600,1.512819580078125,9.77826976776123,0.30508488416671753,0.01196411345154047
1659026347484489700,1.52248974609375,9.78544807434082,0.2967100143432617,0.008374879136681557
1659026347494160400,1.532160400390625,9.79262638092041,0.2907279431819916,0.014356935396790504
1659026347503830500,1.54183056640625,9.795019149780273,0.3026920557022095,0.015553346835076809
1659026347513501000,1.5515009765625,9.797411918640137,0.3002992272377014,0.013160524889826775
1659026347523171300,1.56117138671875,9.80100154876709,0.3086741268634796,-0.0011964113218709826
1659026347532841700,1.570841796875,9.784252166748047,0.30149564146995544,0.015553346835076809
1659026347542512000,1.58051220703125,9.79262638092041,0.2967100143432617,0.007178467698395252
1659026347552182300,1.590182373046875,9.80219841003418,0.2871387302875519,-0.004785645287483931
1659026347561852700,1.599852783203125,9.806983947753906,0.30508488416671753,-0.007178467698395252
1659026347571523000,1.609523193359375,9.791430473327637,0.30987054109573364,0.005982056725770235
1659026347581193500,1.619193359375,9.798608779907227,0.3002992272377014,0.003589233849197626
1659026347590863600,1.628863525390625,9.79262638092041,0.30628129839897156,-0.003589233849197626
1659026347600534000,1.638533935546875,9.7938232421875,0.3122633695602417,0.003589233849197626
1659026347610204400,1.648204345703125,9.795019149780273,0.2991028428077698,0.013160524889826775
1659026347619874800,1.657874755859375,9.796216011047363,0.30149564146995544,0.010767702013254166
1659026347629545200,1.667545166015625,9.784252166748047,0.30508488416671753,0.01196411345154047
1659026347639215400,1.67721533203125,9.783055305480957,0.2847459018230438,0.005982056725770235
1659026347648886000,1.686885986328125,9.80817985534668,0.30508488416671753,0.0023928226437419653
1659026347658556200,1.69655615234375,9.80100154876709,0.3026920557022095,0.02273181453347206
1659026347668226600,1.7062265625,9.826126098632812,0.2955136001110077,0.008374879136681557
1659026347677897000,1.71589697265625,9.833304405212402,0.2991028428077698,0.02632104977965355
1659026347687567400,1.7255673828125,9.81655502319336,0.2787638306617737,0.04905286431312561
1659026347697237500,1.735237548828125,9.811769485473633,0.3565305769443512,-0.04426721855998039
1659026347706908000,1.744907958984375,9.845269203186035,0.3613162338733673,-0.040677983313798904
1659026347716578300,1.754578369140625,9.80937671661377,0.3936193287372589,-0.07178468257188797
1659026347726248700,1.764248779296875,9.757930755615234,0.576670229434967,-0.28953152894973755
1659026347735919000,1.773919189453125,9.753145217895508,0.8530412912368774,-0.6173482537269592
1659026347745589200,1.78358935546875,9.863214492797852,0.6927221417427063,-0.50129634141922
1659026347755259600,1.793259765625,9.848857879638672,0.31345975399017334,-0.13280165195465088
1659026347764930000,1.802929931640625,9.811769485473633,0.2105683982372284,0.009571290574967861
1659026347774600400,1.812600341796875,9.80937671661377,0.38644084334373474,-0.08973085135221481
1659026347784270800,1.822270751953125,9.899106979370117,0.4666004180908203,-0.06939185410737991
1659026347793941000,1.83194091796875,9.7938232421875,0.363709032535553,0.08135596662759781
1659026347803611400,1.841611328125,9.737591743469238,0.13998012244701385,0.2548356056213379
1659026347813281800,1.85128173828125,9.641879081726074,0.2105683982372284,0.09212367236614227
1659026347822952200,1.8609521484375,9.675378799438477,0.4247260093688965,-0.22492532432079315
1659026347832622600,1.87062255859375,9.67657470703125,0.22971096634864807,-0.09571290761232376
1659026347842293000,1.88029296875,9.878767967224121,-0.05623133108019829,0.2548356056213379
1659026347851963100,1.889963134765625,9.900303840637207,-0.16151553392410278,0.6101697683334351
1659026347861633500,1.899633544921875,9.952945709228516,-0.10767702013254166,0.6532405614852905
1659026347871304000,1.909303955078125,9.934999465942383,0.09571290761232376,0.5132604837417603
1659026347880974300,1.918974365234375,9.841679573059082,0.33858439326286316,0.28953152894973755
1659026347890644700,1.928644775390625,9.772287368774414,0.3565305769443512,0.07417750358581543
1659026347900315000,1.93831494140625,9.830911636352539,0.40319061279296875,-0.137587308883667
1659026347909985300,1.9479853515625,9.795019149780273,0.3684946894645691,-0.15912270545959473
1659026347919655700,1.95765576171875,9.82373332977295,0.15912270545959473,0.1746760457754135
1659026347929326000,1.967326171875,9.766305923461914,-0.064606212079525,0.6831508874893188
1659026347938996500,1.97699658203125,9.791430473327637,-0.06340979784727097,0.38285163044929504
1659026347948666600,1.98666650390625,9.854840278625488,0.25004997849464417,0.1423729509115219
1659026347958337000,1.9963369140625,9.732806205749512,0.24646073579788208,0.15912270545959473
1659026347968007400,2.00600732421875,9.775876998901367,0.28594231605529785,0.20458634197711945
1659026347977677800,2.015677734375,10.02592658996582,0.16390834748744965,0.3290131092071533
1659026347987348000,2.025347900390625,10.02712345123291,0.19142581522464752,0.20578274130821228
1659026347997018600,2.0350185546875,9.914660453796387,0.3290131092071533,-0.02392822690308094
1659026348006688800,2.044688720703125,10.063015937805176,0.33020952343940735,-0.26201409101486206
1659026348016359200,2.054359130859375,10.208977699279785,-0.04905286431312561,0.19740787148475647
1659026348026029600,2.064029541015625,10.96750259399414,0.24406790733337402,0.12442677468061447
1659026348035700000,2.073699951171875,11.048858642578125,0.3601198196411133,0.24047867953777313
1659026348045370400,2.083370361328125,10.704292297363281,0.15672987699508667,0.5467599630355835
1659026348055040500,2.09304052734375,10.951949119567871,-0.2955136001110077,0.6819544434547424
1659026348064711000,2.1027109375,11.194820404052734,-0.6113662123680115,0.7860422134399414
1659026348074381300,2.11238134765625,10.670792579650879,-0.7214360237121582,0.9272187948226929
1659026348084051700,2.1220517578125,9.66819953918457,-0.711864709854126,0.9391828775405884
1659026348093721900,2.131721923828125,8.748159408569336,-0.35533416271209717,0.98703932762146
1659026348103392300,2.141392333984375,8.659625053405762,0.3936193287372589,1.1174482107162476
1659026348113062700,2.151062744140625,8.884550094604492,1.184447169303894,1.0947163105010986
1659026348122733000,2.160733154296875,9.263813018798828,1.459621787071228,0.8769695162773132
1659026348132403500,2.170403564453125,9.373882293701172,1.1365907192230225,0.8662018179893494
1659026348142073600,2.180073486328125,9.17288589477539,0.6125625967979431,1.01814603805542
1659026348151744000,2.189743896484375,9.263813018798828,0.41515472531318665,1.1892328262329102
1659026348161414400,2.199414306640625,9.017352104187012,0.5168496966362,1.0875378847122192
1659026348171084800,2.209084716796875,9.29731273651123,0.729810893535614,0.8913264274597168
1659026348180755200,2.218755126953125,10.476973533630371,0.09212367236614227,1.1365907192230225
1659026348190425600,2.228425537109375,10.000802040100098,-0.41994038224220276,1.3591232299804688
1659026348200096000,2.238095947265625,8.575876235961914,-0.3852444589138031,1.3806586265563965
1659026348209766100,2.24776611328125,10.419546127319336,-0.4139583110809326,2.6213371753692627
1659026348219436500,2.2574365234375,11.432906150817871,-1.667797327041626,3.875176191329956
1659026348229107000,2.26710693359375,10.566704750061035,-1.6606189012527466,3.607180118560791
1659026348238777300,2.27677734375,9.956535339355469,-0.592223584651947,2.825923442840576
1659026348248447500,2.286447509765625,10.280762672424316,0.8889335989952087,1.9070796966552734
1659026348258118000,2.296117919921875,9.736394882202148,1.6689938306808472,1.2705888748168945
1659026348267788300,2.305788330078125,9.643074989318848,1.506281852722168,0.8745766878128052
1659026348277458700,2.315458740234375,9.163313865661621,1.1856436729431152,0.5288137793540955
1659026348287129000,2.325129150390625,8.208578109741211,1.0241280794143677,0.4307080805301666
1659026348296799200,2.33479931640625,9.10229778289795,1.4536397457122803,0.31824541091918945
1659026348306469600,2.3444697265625,8.886942863464355,1.0564311742782593,0.17587246000766754
1659026348316140000,2.35414013671875,9.028120040893555,0.37088751792907715,0.259621262550354
1659026348325810400,2.363810546875,8.2695951461792,0.8147560954093933,0.8805587291717529
1659026348335480800,2.373480712890625,9.42891788482666,1.2215359210968018,0.7776673436164856
1659026348345151000,2.38315087890625,10.325029373168945,1.1102696657180786,0.9487541913986206
1659026348354821400,2.3928212890625,10.332208633422852,0.6556333899497986,1.5194423198699951
1659026348364491800,2.40249169921875,10.505687713623047,0.4307080805301666,1.4715858697891235
1659026348374162200,2.412162109375,12.344572067260742,0.1663011759519577,1.9537396430969238
1659026348383832600,2.42183251953125,13.006187438964844,-0.5060819983482361,2.8893332481384277
1659026348393503000,2.4315029296875,10.24487018585205,-0.9499505758285522,3.071187973022461
1659026348403173000,2.441173095703125,8.816354751586914,-0.5539384484291077,2.169093608856201
1659026348412843500,2.450843505859375,8.718249320983887,0.7226324677467346,0.760917603969574
1659026348422514000,2.460513916015625,8.72782039642334,1.7324036359786987,-1.0516455173492432
1659026348432184300,2.470184326171875,8.82114028930664,2.4358935356140137,-1.7587246894836426
1659026348441854700,2.479854736328125,9.081958770751953,2.699103832244873,-1.6977076530456543
1659026348451524900,2.48952490234375,9.30329418182373,2.0303099155426025,-1.1078768968582153
1659026348461195300,2.4991953125,9.592825889587402,1.4835500717163086,-0.007178467698395252
1659026348470865700,2.50886572265625,8.927620887756348,0.8135597109794617,0.22133609652519226
1659026348480536000,2.5185361328125,8.634500503540039,0.5156532526016235,0.4630111753940582
1659026348490206500,2.52820654296875,8.45743179321289,0.3601198196411133,0.45224347710609436
1659026348499876600,2.537876708984375,8.128418922424316,0.25004997849464417,0.12442677468061447
1659026348509547000,2.547547119140625,7.7802629470825195,0.23330020904541016,-0.25722843408584595
1659026348519217400,2.557217529296875,7.657032489776611,0.22851456701755524,-0.3696911036968231
1659026348528887800,2.5668876953125,8.011170387268066,0.2799602448940277,-0.35054850578308105
1659026348538558200,2.57655810546875,9.433703422546387,0.09930214285850525,-0.6472585201263428
1659026348548228600,2.586228515625,11.447263717651367,0.12203395366668701,-1.3722838163375854
1659026348557898800,2.595898681640625,11.429317474365234,0.7345965504646301,-2.0506489276885986
1659026348567569200,2.605569091796875,10.886146545410156,1.168893814086914,-1.667797327041626
1659026348577239600,2.615239501953125,10.825129508972168,1.1808580160140991,-0.6687939167022705
1659026348586910000,2.624909912109375,10.712666511535645,0.9332008361816406,0.07776673883199692
1659026348596580400,2.634580322265625,10.04148006439209,0.4953143000602722,0.13878370821475983
1659026348606250500,2.64425048828125,9.253045082092285,0.038285162299871445,-0.08614161610603333
1659026348615921000,2.6539208984375,9.007781028747559,-0.3086741268634796,-0.2763710021972656
1659026348625591300,2.66359130859375,9.473184585571289,-0.3768695592880249,-0.40797626972198486
1659026348635261700,2.67326171875,9.969695091247559,-0.06340979784727097,-0.6113662123680115
1659026348644930600,2.6829306640625,9.875179290771484,0.36729827523231506,-0.9332008361816406
1659026348654600700,2.6926005859375,9.882357597351074,0.607776939868927,-0.9810572862625122
1659026348664271000,2.70227099609375,9.929018020629883,0.638883650302887,-0.6484549641609192
1659026348673941500,2.71194140625,9.546165466308594,0.9966106414794922,-0.05024927482008934
1659026348683612000,2.72161181640625,8.998209953308105,0.8697910308837891,0.07537391036748886
1659026348693282000,2.731281982421875,8.885746955871582,0.5288137793540955,0.2476571500301361
1659026348702952700,2.74095263671875,9.060422897338867,0.18424734473228455,0.20099709928035736
1659026348712622800,2.750622802734375,9.748359680175781,-0.08135596662759781,-0.0526420995593071
1659026348722293200,2.760293212890625,10.674382209777832,0.004785645287483931,-0.6005984544754028
1659026348731963600,2.769963623046875,11.490334510803223,0.380458801984787,-1.1461620330810547
1659026348741634000,2.779634033203125,11.081161499023438,0.9104689955711365,-1.4416756629943848
1659026348751304400,2.789304443359375,10.114460945129395,0.7058826684951782,0.08733802288770676
1659026348760974600,2.798974609375,9.355937004089355,0.4713860750198364,-0.4342973232269287
1659026348770645000,2.80864501953125,8.72064208984375,0.349352091550827,-0.6269195079803467
1659026348780315400,2.8183154296875,9.17288589477539,0.40797626972198486,0.008374879136681557
1659026348789985800,2.82798583984375,10.031908988952637,0.576670229434967,0.3158525824546814
1659026348799656000,2.837656005859375,10.770094871520996,0.6915257573127747,0.24167509377002716
1659026348809326300,2.847326416015625,10.987841606140137,0.7597211599349976,0.003589233849197626
1659026348818996700,2.856996826171875,10.553544044494629,0.7848458290100098,-0.26560330390930176
1659026348828667100,2.866667236328125,9.974481582641602,0.5958128571510315,-0.2105683982372284
1659026348838337500,2.876337646484375,9.312865257263184,0.381655216217041,0.14835500717163086
1659026348848007700,2.886007568359375,9.259027481079102,0.1339980661869049,0.4893322288990021
1659026348857678300,2.89567822265625,9.153742790222168,-0.061016976833343506,0.5694918036460876
1659026348867348500,2.905348388671875,8.999405860900879,-0.0011964113218709826,0.5754738450050354
1659026348877019000,2.915018798828125,10.118050575256348,0.24047867953777313,0.48574298620224
1659026348886689300,2.924689208984375,10.619346618652344,0.4773681163787842,0.763310432434082
1659026348896359700,2.934359619140625,10.986644744873047,0.5312066078186035,1.4333007335662842
1659026348906030000,2.944030029296875,11.400603294372559,0.40797626972198486,1.8305093050003052
1659026348915700200,2.9537001953125,11.666206359863281,0.3326023519039154,2.11405873298645
1659026348925370600,2.96337060546875,12.252448081970215,0.4426721930503845,2.3617160320281982
1659026348935041000,2.973041015625,12.820743560791016,0.48574298620224,2.4681966304779053
1659026348944711400,2.98271142578125,11.856435775756836,0.04905286431312561,2.6261229515075684
1659026348954381600,2.992381591796875,10.293923377990723,-0.20937198400497437,3.0759735107421875
1659026348964052000,3.002052001953125,9.128618240356445,0.11605189740657806,2.9383862018585205
1659026348973722400,3.011722412109375,9.040083885192871,0.6843472719192505,2.5435705184936523
1659026348983392800,3.021392822265625,9.93260669708252,1.1569297313690186,2.1032910346984863
1659026348993063200,3.031063232421875,11.198410034179688,1.5337992906570435,1.688136339187622
1659026349002733300,3.0407333984375,12.409177780151367,1.6175481081008911,1.4177473783493042
1659026349012403700,3.05040380859375,13.262219429016113,1.3040883541107178,1.6163517236709595
1659026349022074000,3.06007421875,12.788440704345703,0.4713860750198364,2.6763720512390137
1659026349031744500,3.06974462890625,11.753544807434082,-0.26560330390930176,3.5234313011169434
1659026349041415000,3.079414794921875,10.955538749694824,-0.3170489966869354,4.199403762817383
1659026349051085300,3.089085205078125,10.705488204956055,0.11126625537872314,4.23649263381958
1659026349060755700,3.098755615234375,10.716256141662598,0.656829833984375,3.524627685546875
1659026349070425900,3.10842578125,11.314461708068848,1.207179069519043,2.616551637649536
1659026349080096300,3.11809619140625,12.185449600219727,1.542174220085144,1.9094724655151367
1659026349089766700,3.1277666015625,12.80040454864502,1.568495273590088,1.4273186922073364
1659026349099437000,3.13743701171875,13.15932846069336,1.4213366508483887,0.9846464991569519
1659026349109107500,3.147107421875,12.847064971923828,1.1856436729431152,0.7956135272979736
1659026349118777600,3.156777587890625,11.949756622314453,0.7968099117279053,1.2837493419647217
1659026349128448000,3.166447998046875,10.846665382385254,0.3038884699344635,2.0709879398345947
1659026349138118400,3.176118408203125,9.92423152923584,-0.05144568532705307,2.744567632675171
1659026349147788800,3.185788818359375,9.667003631591797,0.06939185410737991,3.1477582454681396
1659026349157459000,3.195458984375,10.159924507141113,0.40677985548973083,3.263810157775879
1659026349167129300,3.20512939453125,10.907682418823242,0.6269195079803467,3.2374889850616455
1659026349176799700,3.2147998046875,11.491530418395996,0.6161518096923828,3.0723843574523926
1659026349186470100,3.22447021484375,12.000005722045898,0.43190449476242065,2.757728099822998
1659026349196140500,3.234140625,12.518052101135254,0.13280165195465088,2.3018953800201416
1659026349205811000,3.24381103515625,12.847064971923828,-0.13040883839130402,1.9417755603790283
1659026349215481300,3.2534814453125,12.782458305358887,-0.44027936458587646,1.6606189012527466
1659026349225151500,3.2631513671875,12.257233619689941,-0.8243274092674255,1.482353687286377
1659026349234822000,3.27282177734375,11.541780471801758,-1.0145567655563354,1.5026925802230835
1659026349244492300,3.2824921875,10.815558433532715,-1.0037890672683716,1.6103696823120117
1659026349254162700,3.29216259765625,10.085747718811035,-0.9092726111412048,1.7383856773376465
1659026349263833000,3.3018330078125,9.757930755615234,-0.5982056856155396,1.9250258207321167
1659026349273503200,3.311503173828125,10.077372550964355,-0.1663011759519577,1.9058831930160522
1659026349283173600,3.321173583984375,10.688738822937012,0.20578274130821228,1.7371892929077148
1659026349292844000,3.330843994140625,11.211570739746094,0.42352959513664246,1.5385849475860596
1659026349302514400,3.340514404296875,11.423335075378418,0.4295116662979126,1.3639088869094849
1659026349312184800,3.350184814453125,11.423335075378418,0.23449662327766418,1.3124631643295288
1659026349321855000,3.35985498046875,11.286944389343262,-0.02392822690308094,1.31365966796875
1659026349331525400,3.369525390625,11.158928871154785,-0.33379876613616943,1.262213945388794
1659026349341195800,3.37919580078125,11.095519065856934,-0.5623133182525635,1.1365907192230225
1659026349350866200,3.3888662109375,10.935199737548828,-0.7549355626106262,0.9726824164390564
1659026349360536300,3.398536376953125,10.96750259399414,-0.867398202419281,0.8410771489143372
1659026349370207000,3.40820703125,11.236695289611816,-0.9403793215751648,0.8865407705307007
1659026349379877000,3.417877197265625,11.730813026428223,-0.9152546525001526,1.113858938217163
1659026349389547500,3.427547607421875,12.242877006530762,-0.8590233325958252,1.3962119817733765
1659026349399218000,3.437218017578125,12.597014427185059,-0.7501499056816101,1.765903115272522
1659026349408888300,3.446888427734375,12.665210723876953,-0.5730810165405273,2.0063817501068115
1659026349418558700,3.456558837890625,12.294322967529297,-0.4462614357471466,2.115255117416382
1659026349428228900,3.466228759765625,11.521441459655762,-0.41874396800994873,2.0781664848327637
1659026349437899300,3.475899169921875,10.817951202392578,-0.4378865361213684,1.8963119983673096
1659026349447569700,3.485569580078125,10.262816429138184,-0.48454657196998596,1.5828521251678467
1659026349457240000,3.495239990234375,10.02712345123291,-0.5060819983482361,1.2047861814498901
1659026349466910500,3.504910400390625,10.01994514465332,-0.5024927258491516,0.8386843204498291
1659026349476580600,3.51458056640625,10.272387504577637,-0.28594231605529785,0.6173482537269592
1659026349486251000,3.5242509765625,10.454241752624512,-0.037088751792907715,0.6364908218383789
1659026349495921400,3.53392138671875,10.53799057006836,0.11246266216039658,0.8087740540504456
1659026349505591800,3.543591796875,10.567901611328125,0.2309073805809021,1.089930772781372
1659026349515262000,3.553261962890625,10.449456214904785,0.3361915946006775,1.420140266418457
1659026349524932600,3.5629326171875,10.210174560546875,0.32183465361595154,1.7060825824737549
1659026349534602800,3.572602783203125,10.156335830688477,0.30149564146995544,1.6689938306808472
1659026349544273200,3.582273193359375,10.314262390136719,0.3242274820804596,1.4536397457122803
1659026349553943600,3.591943603515625,10.417153358459473,0.259621262550354,1.3244273662567139
1659026349563614000,3.601614013671875,10.412367820739746,0.14715859293937683,1.2717852592468262
1659026349573284400,3.611284423828125,10.307083129882812,0.18305093050003052,1.3639088869094849
1659026349582954500,3.62095458984375,10.303494453430176,0.5383850932121277,1.4727823734283447
1659026349592625000,3.630625,10.1276216506958,0.6699903607368469,1.2897313833236694
1659026349602295300,3.64029541015625,9.963713645935059,1.0791629552841187,1.3028919696807861
1659026349611965700,3.649965576171875,10.092926025390625,1.4883357286453247,1.5014961957931519
1659026349621636000,3.659635986328125,10.230513572692871,1.7324036359786987,1.703689694404602
1659026349631306200,3.66930615234375,10.116853713989258,1.6929219961166382,1.8747764825820923
1659026349640976600,3.6789765625,9.903892517089844,1.7371892929077148,2.0099709033966064
1659026349650647000,3.68864697265625,9.91825008392334,1.828116536140442,1.8340985774993896
1659026349660317400,3.6983173828125,9.996016502380371,1.604387640953064,1.3411771059036255
1659026349669987800,3.70798779296875,9.981659889221191,1.3208380937576294,1.1306086778640747
1659026349679658000,3.717657958984375,10.162318229675293,1.062413215637207,1.062413215637207
1659026349689328400,3.727328369140625,10.210174560546875,0.8243274092674255,1.0325030088424683
1659026349698998800,3.736998779296875,9.9469633102417,0.8147560954093933,1.0504491329193115
1659026349708669200,3.746669189453125,9.747162818908691,0.9403793215751648,1.0396814346313477
1659026349718339600,3.756339599609375,9.79262638092041,1.0959128141403198,1.0325030088424683
1659026349728010000,3.766010009765625,9.750752449035645,1.3316057920455933,1.1473584175109863
1659026349737680100,3.77568017578125,9.468399047851562,1.454836130142212,1.1282159090042114
1659026349747350500,3.7853505859375,9.22433090209961,1.5146567821502686,0.9643075466156006
1659026349757021000,3.79502099609375,8.943174362182617,1.5397813320159912,0.9762716293334961
1659026349766691300,3.80469140625,8.5100736618042,1.4967105388641357,1.046859860420227
1659026349776361700,3.81436181640625,8.007580757141113,1.7252250909805298,1.1485549211502075
1659026349786031900,3.824031982421875,7.913064479827881,1.939382791519165,1.306481122970581
1659026349795702300,3.833702392578125,8.178668022155762,2.1308085918426514,1.4189438819885254
1659026349805372700,3.84337255859375,8.469395637512207,2.17627215385437,1.322034478187561
1659026349815043000,3.85304296875,8.711071014404297,1.95852530002594,0.989432156085968
1659026349824713500,3.86271337890625,8.863015174865723,1.7886348962783813,0.5395814776420593
1659026349834383600,3.872383544921875,9.028120040893555,1.5744773149490356,0.2763710021972656
1659026349844054300,3.88205419921875,9.138189315795898,1.2945170402526855,0.27397820353507996
1659026349853724400,3.891724365234375,8.745766639709473,1.3232308626174927,0.6520441770553589
1659026349863394800,3.901394775390625,7.9968132972717285,1.5314065217971802,1.2969099283218384
1659026349873065200,3.911065185546875,7.513463020324707,1.6067804098129272,1.8867406845092773
1659026349882735600,3.920735595703125,7.343572616577148,1.2813565731048584,1.9776679277420044
1659026349892405800,3.93040576171875,7.09711217880249,0.7956135272979736,1.5672988891601562
1659026349902076200,3.940076171875,6.130411624908447,-0.03469592705368996,1.0612168312072754
1659026349911746600,3.94974658203125,6.348158359527588,-0.4546363055706024,0.5551348328590393
1659026349921417000,3.9594169921875,7.898707389831543,-0.16151553392410278,-0.1052841991186142
1659026349931087400,3.96908740234375,8.748159408569336,0.4223332107067108,-0.9583254456520081
1659026349940757500,3.978757568359375,9.042476654052734,1.1042876243591309,-1.306481122970581
1659026349950428000,3.988427978515625,9.580862045288086,2.3916261196136475,-1.0372886657714844
1659026349960098300,3.998098388671875,9.67657470703125,2.4670002460479736,-0.031106693670153618
1659026349969768700,4.007768798828125,8.432307243347168,1.5589239597320557,1.215553879737854
1659026349979439000,4.017439208984375,7.588837146759033,0.5587241053581238,1.872383713722229
1659026349989109200,4.027109130859375,7.6151580810546875,-0.1495514214038849,1.6773686408996582
1659026349998780000,4.03677978515625,8.110472679138184,-0.537188708782196,1.1880364418029785
1659026350008450000,4.046449951171875,8.730213165283203,-0.3852444589138031,0.5288137793540955
1659026350018120400,4.056120361328125,9.1716890335083,-0.0729810893535614,-0.2632105052471161
1659026350027790800,4.065790771484375,8.683553695678711,0.1459621787071228,-0.623330295085907
1659026350037461200,4.075461181640625,9.032905578613281,0.6448656916618347,-0.9678967595100403
1659026350047131600,4.085131591796875,9.645467758178711,1.4871392250061035,-1.4787644147872925
1659026350056801800,4.0948017578125,9.67657470703125,1.7395820617675781,-1.5122638940811157
1659026350066472200,4.10447216796875,9.555737495422363,1.0600204467773438,-0.9906286001205444
1659026350076142600,4.114142578125,9.675378799438477,0.1423729509115219,-0.4941178858280182
1659026350085813000,4.12381298828125,10.03549861907959,-0.5874379873275757,-0.39481574296951294
1659026350095483400,4.1334833984375,10.417153358459473,-0.4701896607875824,-0.34695929288864136
1659026350105153500,4.143153564453125,10.280762672424316,0.07178468257188797,-0.16869398951530457
1659026350114824000,4.152823974609375,10.230513572692871,0.8662018179893494,-0.39840495586395264
1659026350124494300,4.162494384765625,10.106086730957031,1.5433706045150757,-0.8231309652328491
1659026350134164700,4.172164794921875,9.877572059631348,1.801795482635498,-1.2598211765289307
1659026350143835000,4.1818349609375,9.4121675491333,1.3603196144104004,-1.1485549211502075
1659026350153505300,4.19150537109375,8.700303077697754,0.5455635786056519,-0.9248259663581848
1659026350163175700,4.20117578125,8.474181175231934,0.09451649338006973,-1.054038405418396
1659026350172846000,4.21084619140625,7.956135272979736,0.19381862878799438,-0.9152546525001526
1659026350182516500,4.2205166015625,7.439285755157471,0.09571290761232376,-0.7489534616470337
1659026350192187000,4.230186767578125,7.027719974517822,0.06939185410737991,-0.6819544434547424
1659026350201857300,4.239857177734375,7.357929706573486,0.25004997849464417,-0.8063812255859375
1659026350211527400,4.24952734375,8.023134231567383,0.7070791125297546,-1.4715858697891235
1659026350221197800,4.25919775390625,8.599804878234863,0.9954141974449158,-2.043470621109009
1659026350230868200,4.2688681640625,8.93838882446289,0.5706881880760193,-1.4572290182113647
1659026350240538600,4.27853857421875,8.714659690856934,0.003589233849197626,-0.836291491985321
1659026350250209000,4.288208984375,8.184649467468262,0.10767702013254166,-1.1976077556610107
1659026350259879200,4.297879150390625,7.782655715942383,0.15912270545959473,-1.3148560523986816
1659026350269549600,4.307549560546875,7.59362268447876,0.14476576447486877,-1.176072359085083
1659026350279220000,4.317219970703125,6.989434719085693,0.1746760457754135,-0.6879364848136902
1659026350288890400,4.326890380859375,6.4115681648254395,0.2907279431819916,0.09690931439399719
1659026350298560800,4.336560791015625,6.244070529937744,0.5180460810661316,0.4749752879142761
1659026350308231000,4.34623095703125,6.606583118438721,0.7465606927871704,0.6652047038078308
1659026350317901300,4.3559013671875,7.255038261413574,0.9726824164390564,0.763310432434082
1659026350327571700,4.36557177734375,7.858029365539551,1.073180913925171,0.6747759580612183
1659026350337242000,4.3752421875,8.154739379882812,0.8709874153137207,0.5826523303985596
1659026350346912500,4.38491259765625,7.920242786407471,0.6795616149902344,0.24885354936122894
1659026350356583000,4.3945830078125,7.302894592285156,0.6424728631973267,-0.13998012244701385
1659026350366253000,4.404253173828125,6.874579429626465,0.8638089895248413,-0.3732803463935852
1659026350375923500,4.41392333984375,6.580262184143066,1.069591760635376,-0.31106695532798767
1659026350385593900,4.42359375,6.736992359161377,1.1222338676452637,-0.2225325107574463
1659026350395264300,4.43326416015625,7.464410305023193,0.9858429431915283,-0.2225325107574463
1659026350404934700,4.4429345703125,8.285148620605469,0.9690931439399719,-0.33379876613616943
1659026350414604800,4.452604736328125,8.805587768554688,1.0037890672683716,-0.2991028428077698
1659026350424275200,4.462275146484375,8.997013092041016,1.0492527484893799,-0.2548356056213379
1659026350433945600,4.471945556640625,8.595019340515137,1.01814603805542,-0.20458634197711945
1659026350443616000,4.481615966796875,8.26241683959961,0.9499505758285522,-0.02751746028661728
1659026350453286400,4.491286376953125,8.288737297058105,0.8422735929489136,0.11844471842050552
1659026350462956500,4.50095654296875,8.344968795776367,0.7740781307220459,0.10049854964017868
1659026350472627000,4.510626953125,8.273183822631836,0.760917603969574,0.1459621787071228
1659026350482297300,4.52029736328125,8.46341323852539,0.7740781307220459,0.14715859293937683
1659026350491967700,4.5299677734375,8.864211082458496,1.0085747241973877,0.008374879136681557
1659026350501638100,4.53963818359375,9.066405296325684,1.3052847385406494,0.02871387079358101
1659026350511308500,4.54930859375,9.09990406036377,1.4476577043533325,0.13998012244701385
1659026350520979000,4.55897900390625,8.878568649291992,1.4967105388641357,0.3206382393836975
1659026350530649000,4.568649169921875,8.801998138427734,1.5625132322311401,0.42831525206565857
1659026350540319500,4.578319580078125,8.861818313598633,1.5984054803848267,0.4295116662979126
1659026350549990000,4.587989990234375,8.915657043457031,1.5708880424499512,0.5252245664596558
1659026350559660300,4.597660400390625,8.561519622802734,1.5134602785110474,0.7501499056816101
1659026350569330700,4.60733056640625,8.346165657043457,1.6474584341049194,0.7752745151519775
1659026350579000800,4.617000732421875,8.368897438049316,1.8352949619293213,0.5934200286865234
1659026350588671200,4.626671142578125,8.157132148742676,1.848455548286438,0.4893322288990021
1659026350598341600,4.636341552734375,8.088936805725098,1.8652052879333496,0.3577269911766052
1659026350608012000,4.646011962890625,8.34736156463623,1.820937991142273,0.2632105052471161
1659026350617682200,4.65568212890625,8.647661209106445,1.7527425289154053,0.15553347766399384
1659026350627352600,4.6653525390625,8.702695846557617,1.6079767942428589,0.21176479756832123
1659026350637023000,4.67502294921875,8.481359481811523,1.4644074440002441,0.4211367964744568
1659026350646693400,4.684693359375,8.189435958862305,1.4488540887832642,0.5276173949241638
1659026350656363800,4.69436376953125,7.837690353393555,1.526620864868164,0.5288137793540955
1659026350666034200,4.7040341796875,7.4739813804626465,1.5014961957931519,0.4737788736820221
1659026350675704600,4.71370458984375,7.168896675109863,1.4859428405761719,0.30628129839897156
1659026350685374700,4.723374755859375,7.110272407531738,1.3986048698425293,0.019142581149935722
1659026350695045000,4.733045166015625,7.085147857666016,1.23589289188385,-0.15912270545959473
1659026350704715500,4.742715576171875,6.9475603103637695,1.1928220987319946,-0.19980068504810333
1659026350714386000,4.752385986328125,6.3732829093933105,1.2418749332427979,-0.035892341285943985
1659026350724056300,4.762056396484375,5.940182209014893,1.2215359210968018,0.014356935396790504
1659026350733726500,4.7717265625,5.824130535125732,1.2634103298187256,-0.04905286431312561
1659026350743396900,4.78139697265625,5.827719688415527,1.31365966796875,-0.08614161610603333
1659026350753067300,4.7910673828125,5.996413707733154,1.3627125024795532,-0.17108681797981262
1659026350762737700,4.800737548828125,6.204588890075684,1.466800332069397,-0.37806597352027893
1659026350772408000,4.810407958984375,6.308676719665527,1.6809579133987427,-0.5826523303985596
1659026350782078200,4.820078125,6.088537216186523,1.8185452222824097,-0.4450650215148926
1659026350791748600,4.82974853515625,5.796612739562988,1.789831280708313,-0.07178468257188797
1659026350801419000,4.8394189453125,5.7750773429870605,1.7443677186965942,0.09212367236614227
1659026350811089400,4.84908935546875,5.826523303985596,1.5637096166610718,0.3361915946006775
1659026350820759800,4.858759765625,6.104090690612793,1.5098711252212524,0.6209374666213989
1659026350830430200,4.86843017578125,6.473781585693359,1.6079767942428589,0.4713860750198364
1659026350840100400,4.878100341796875,6.6006011962890625,1.5912270545959473,0.09451649338006973
1659026350849770800,4.887770751953125,6.758527755737305,1.3938192129135132,-0.17587246000766754
1659026350859441200,4.897441162109375,6.751348972320557,0.9583254456520081,-0.2847459018230438
1659026350869111600,4.907111572265625,6.439085960388184,0.5982056856155396,-0.3756731450557709
1659026350878782000,4.916781982421875,5.848058700561523,0.4582255482673645,-0.44745782017707825
1659026350888452000,4.9264521484375,5.382654666900635,0.5623133182525635,-0.5156532526016235
1659026350898122500,4.93612255859375,5.352744102478027,0.6855437159538269,-0.4666004180908203
1659026350907793000,4.94579296875,5.729613780975342,0.778863787651062,-0.3577269911766052
1659026350917463300,4.95546337890625,6.089733600616455,0.729810893535614,-0.1543370634317398
1659026350927133700,4.9651337890625,6.069394588470459,1.1365907192230225,-0.24047867953777313
1659026350936803800,4.974803955078125,6.192625045776367,1.399801254272461,-0.2560320198535919
1659026350946474200,4.98447412109375,6.260820388793945,0.8470591902732849,0.49172505736351013
1659026350956144600,4.99414453125,6.448657035827637,0.8949156403541565,0.45224347710609436
1659026350965815000,5.00381494140625,6.186643123626709,1.0348957777023315,0.013160524889826775
1659026350975485400,5.0134853515625,5.789434432983398,1.196411371231079,-0.5599204897880554
1659026350985155800,5.02315576171875,5.753541946411133,1.2562319040298462,-1.0719845294952393
1659026350994826200,5.032826171875,6.032305717468262,1.184447169303894,-1.25144624710083
1659026351004496400,5.042496337890625,6.3493547439575195,1.144965648651123,-1.1940184831619263
1659026351014166800,5.052166748046875,6.311069488525391,0.8243274092674255,-0.973878800868988
1659026351023837200,5.061837158203125,6.22492790222168,0.48813581466674805,-0.5264210104942322
1659026351033507600,5.071507568359375,6.2775702476501465,0.381655216217041,-0.2763710021972656
1659026351043178000,5.081177978515625,6.752545356750488,0.14356936514377594,0.3242274820804596
1659026351052848000,5.09084814453125,7.506284713745117,0.064606212079525,0.5108676552772522
1659026351062518500,5.1005185546875,8.017151832580566,0.486939400434494,-0.18424734473228455
1659026351072189000,5.11018896484375,8.37129020690918,0.7202396392822266,-1.074377417564392
1659026351081859300,5.119859375,8.726624488830566,0.4570291340351105,-1.5637096166610718
1659026351091529700,5.12952978515625,8.982656478881836,0.11964113265275955,-1.970489501953125
1659026351101200000,5.139199951171875,9.176474571228027,-0.11724831163883209,-2.0985054969787598
1659026351110870300,5.148870361328125,9.028120040893555,-0.17587246000766754,-1.908276081085205
1659026351120540700,5.158540771484375,8.459824562072754,-0.3206382393836975,-0.8997012972831726
1659026351130211000,5.168211181640625,8.615358352661133,-0.1746760457754135,0.28115665912628174
1659026351139881500,5.177881591796875,9.135796546936035,0.6592226624488831,0.5970092415809631
1659026351149551900,5.1875517578125,9.766305923461914,1.7599210739135742,-0.18783657252788544
1659026351159222000,5.197221923828125,10.693524360656738,2.0279171466827393,-0.7010970115661621
1659026351168892400,5.206892333984375,11.389835357666016,1.389033555984497,-0.6604190468788147
1659026351178562800,5.216562744140625,11.23190975189209,0.4139583110809326,-0.7417750358581543
1659026351188233200,5.226233154296875,10.6624174118042,-0.16510476171970367,-1.1174482107162476
1659026351197903600,5.235903564453125,10.411170959472656,0.11844471842050552,-1.8735800981521606
1659026351207573800,5.24557373046875,10.534401893615723,0.9762716293334961,-2.6967110633850098
1659026351217244200,5.255244140625,10.85743236541748,1.6654045581817627,-3.212364435195923
1659026351226914600,5.26491455078125,10.936395645141602,1.7336000204086304,-3.269792079925537
1659026351236585000,5.2745849609375,10.76530933380127,1.1521440744400024,-2.5782663822174072
1659026351246255400,5.28425537109375,10.794022560119629,0.39840495586395264,-1.4416756629943848
1659026351255925500,5.293925537109375,11.221141815185547,0.14476576447486877,-0.8530412912368774
1659026351265596000,5.303595947265625,11.23908805847168,1.0791629552841187,-0.5826523303985596
1659026351275266300,5.313266357421875,11.196017265319824,2.5148565769195557,-0.8458628058433533
1659026351284936700,5.322936767578125,10.701899528503418,3.809373617172241,-1.9812572002410889
1659026351294607000,5.332607177734375,10.265209197998047,4.359723091125488,-3.6526436805725098
1659026351304277500,5.342277587890625,10.122836112976074,3.672982692718506,-4.628915309906006
1659026351313948000,5.351947998046875,10.358529090881348,2.2923240661621094,-5.126622676849365
1659026351323618000,5.3616181640625,11.054841041564941,1.0157532691955566,-5.196014404296875
1659026351333288400,5.371288330078125,11.285747528076172,0.4893322288990021,-4.954339504241943
1659026351342958800,5.380958740234375,11.341979026794434,0.898504912853241,-4.217350006103516
1659026351352629200,5.390629150390625,11.7056884765625,1.5493526458740234,-2.715853691101074
1659026351362299600,5.400299560546875,11.3180513381958,2.3641088008880615,-2.225325107574463
1659026351371969800,5.4099697265625,11.408978462219238,2.7385854721069336,-2.6177480220794678
1659026351381640200,5.41964013671875,12.240484237670898,2.4227328300476074,-3.466003656387329
1659026351391310600,5.429310546875,13.215559005737305,1.8747764825820923,-4.335794448852539
1659026351400981000,5.43898095703125,13.95972728729248,1.6701902151107788,-4.319045066833496
1659026351410651400,5.4486513671875,14.469398498535156,1.6426727771759033,-3.6981074810028076
1659026351420321500,5.458321533203125,14.060225486755371,2.280359983444214,-3.06999135017395
1659026351429992000,5.467991943359375,13.549358367919922,2.9599215984344482,-1.9286150932312012
1659026351439662300,5.477662353515625,12.849457740783691,3.2027931213378906,-0.8458628058433533
1659026351449332700,5.487332763671875,12.455838203430176,2.9144580364227295,-0.5168496966362
1659026351459003100,5.497003173828125,12.128021240234375,2.0315065383911133,-0.7992027401924133
1659026351468673500,5.506673583984375,11.754741668701172,1.1497513055801392,-1.0803594589233398
1659026351478343700,5.51634375,11.983255386352539,0.4055834412574768,-0.9475577473640442
1659026351488014000,5.52601416015625,12.034701347351074,0.19381862878799438,-0.8697910308837891
1659026351497684500,5.5356845703125,12.452248573303223,0.5276173949241638,-0.5826523303985596
1659026351507355000,5.54535498046875,12.869796752929688,0.9954141974449158,-0.33858439326286316
1659026351517025300,5.555025390625,13.328022003173828,1.1282159090042114,-0.30628129839897156
1659026351526695400,5.5646953125,13.48594856262207,0.6867401003837585,-0.2919243574142456
1659026351536365800,5.57436572265625,13.683356285095215,-0.13998012244701385,-0.064606212079525
1659026351546036200,5.5840361328125,14.048261642456055,0.21296121180057526,-0.3936193287372589
1659026351555706600,5.59370654296875,14.390435218811035,0.4103690981864929,-0.05623133108019829
1659026351565377000,5.603376953125,14.70628833770752,0.519242525100708,0.3900300860404968
1659026351575047200,5.613047119140625,14.891731262207031,0.39601215720176697,0.39601215720176697
1659026351584717600,5.622717529296875,15.244672775268555,0.4211367964744568,0.3481557071208954
1659026351594388000,5.632387939453125,15.054443359375,0.48454657196998596,0.576670229434967
1659026351604058400,5.642058349609375,14.876178741455078,0.27756741642951965,0.6664010882377625
1659026351613728800,5.651728759765625,14.237295150756836,0.037088751792907715,0.7728816866874695
1659026351623399200,5.661399169921875,13.5302152633667,-0.21655045449733734,0.7082754969596863
1659026351633069600,5.671069580078125,13.227523803710938,-0.44386860728263855,0.486939400434494
1659026351642739700,5.68073974609375,12.457035064697266,-0.5958128571510315,0.05383851006627083
1659026351652410000,5.69041015625,12.0335054397583,-0.380458801984787,-0.24526432156562805
1659026351662080500,5.70008056640625,11.754741668701172,0.1986042857170105,-1.0049854516983032
1659026351671751000,5.7097509765625,11.80020523071289,0.4654040038585663,-1.2299108505249023
1659026351681421300,5.71942138671875,11.83011531829834,0.4331009089946747,-1.31365966796875
1659026351691091500,5.729091552734375,11.840883255004883,0.4450650215148926,-1.3196417093276978
1659026351700761900,5.738761962890625,11.502298355102539,0.44745782017707825,-1.1892328262329102
1659026351710432300,5.748432373046875,10.883753776550293,0.519242525100708,-1.0037890672683716
1659026351720102700,5.7581025390625,10.06421184539795,0.4426721930503845,-1.0432707071304321
1659026351729773000,5.76777294921875,9.42772102355957,-0.02392822690308094,-1.098305583000183
1659026351739443200,5.777443115234375,13.221541404724121,-0.32662028074264526,-1.1126625537872314
1659026351749113900,5.78711376953125,19.89990997314453,-0.33738797903060913,-2.6847469806671143
1659026351758784000,5.796783935546875,10.934002876281738,1.5720844268798828,-3.583251953125
1659026351768454400,5.806454345703125,8.346165657043457,1.0121639966964722,-1.674975872039795
1659026351778124800,5.816124755859375,10.231709480285645,-0.33379876613616943,-0.7513462901115417
1659026351787795200,5.825795166015625,10.054640769958496,-0.6065805554389954,-1.0648061037063599
1659026351797465300,5.83546533203125,9.522237777709961,-0.2632105052471161,-1.098305583000183
1659026351807135700,5.8451357421875,9.77826976776123,0.1495514214038849,-0.9451649188995361
1659026351816806100,5.85480615234375,9.962516784667969,0.35892340540885925,-0.7190431952476501
1659026351826476500,5.8644765625,9.54496955871582,0.3888336718082428,-0.45583271980285645
1659026351836147000,5.87414697265625,9.926624298095703,0.2225325107574463,-0.381655216217041
1659026351845817000,5.883817138671875,9.424132347106934,0.3613162338733673,-0.9834501147270203
1659026351855487500,5.893487548828125,9.591629981994629,0.5455635786056519,-0.9942178130149841
1659026351865158000,5.903157958984375,10.52363395690918,0.4175475537776947,-0.39840495586395264
1659026351874828300,5.912828369140625,10.541580200195312,0.397208571434021,-0.15074782073497772
1659026351884498700,5.922498779296875,9.90149974822998,0.5359922647476196,-0.24526432156562805
1659026351894168800,5.9321689453125,9.42054271697998,0.6305087804794312,-0.08255238085985184
1659026351903839200,5.941839111328125,9.232706069946289,0.6759724020957947,0.11485548317432404
1659026351913509600,5.951509521484375,9.437292098999023,0.6592226624488831,0.1136590763926506
1659026351923180000,5.961179931640625,9.601201057434082,0.5000999569892883,0.007178467698395252
1659026351932850400,5.970850341796875,9.518648147583008,0.1459621787071228,-0.031106693670153618
1659026351942520800,5.980520751953125,9.403793334960938,-0.08973085135221481,-0.004785645287483931
1659026351952191200,5.990191162109375,9.395418167114258,-0.09212367236614227,-0.11246266216039658
1659026351961861400,5.999861328125,9.573683738708496,-0.06699903309345245,-0.1698904037475586
1659026351971531800,6.00953173828125,10.024730682373047,0.016749758273363113,-0.27038896083831787
1659026351981202200,6.0192021484375,10.425528526306152,0.21176479756832123,-0.38644084334373474
1659026351990872600,6.02887255859375,10.226923942565918,0.4654040038585663,-0.5300102233886719
1659026352000543000,6.03854296875,9.373882293701172,0.5946164131164551,-0.5599204897880554
1659026352010213000,6.048213134765625,9.229117393493652,0.4773681163787842,-0.41994038224220276
1659026352019883500,6.057883544921875,9.43609619140625,0.3290131092071533,-0.4570291340351105
1659026352029554000,6.067553955078125,9.628718376159668,0.3397808074951172,-0.41874396800994873
1659026352039224300,6.077224365234375,9.774680137634277,0.26560330390930176,-0.3900300860404968
1659026352048894700,6.086894775390625,9.885947227478027,0.14835500717163086,-0.4450650215148926
1659026352058564900,6.09656494140625,9.92423152923584,0.2225325107574463,-0.5742774605751038
1659026352068235500,6.106235595703125,9.755537986755371,0.5252245664596558,-0.5611169338226318
1659026352077905700,6.11590576171875,9.620343208312988,0.7058826684951782,-0.46061834692955017
1659026352087576000,6.125576171875,9.475577354431152,0.7238288521766663,-0.39481574296951294
1659026352097246500,6.13524658203125,9.4061861038208,0.50129634141922,-0.3445664644241333
1659026352106916900,6.144916748046875,9.512666702270508,0.2919243574142456,-0.363709032535553
1659026352116587000,6.1545869140625,9.550951957702637,0.25363919138908386,-0.5120640397071838
1659026352126257400,6.16425732421875,9.633503913879395,0.3206382393836975,-0.7238288521766663
1659026352135927800,6.173927734375,9.82373332977295,0.4043870270252228,-0.7621139883995056
1659026352145598200,6.18359814453125,9.82373332977295,0.4139583110809326,-0.5060819983482361
1659026352155268600,6.1932685546875,9.845269203186035,0.37088751792907715,0.004785645287483931
1659026352164938800,6.202938720703125,9.90149974822998,0.29431718587875366,0.4414757788181305
1659026352174609200,6.212609130859375,9.91705322265625,0.2763710021972656,0.6317051649093628
1659026352184279600,6.222279541015625,10.047462463378906,0.31824541091918945,0.6293123364448547
1659026352193950000,6.231949951171875,10.146764755249023,0.41994038224220276,0.6939185857772827
1659026352203620400,6.241620361328125,10.02712345123291,0.5132604837417603,0.6436693072319031
1659026352213290500,6.25129052734375,9.967302322387695,0.4043870270252228,0.47976094484329224
1659026352222961200,6.260961181640625,9.954142570495605,0.20937198400497437,0.43908295035362244
1659026352232631300,6.27063134765625,10.01874828338623,0.07058826833963394,0.6711867451667786
1659026352242301700,6.2803017578125,9.912267684936523,0.11246266216039658,0.6687939167022705
1659026352251972000,6.28997216796875,9.751948356628418,0.20937198400497437,0.6113662123680115
1659026352261642500,6.299642578125,9.724431037902832,0.24646073579788208,0.6544370055198669
1659026352271313000,6.30931298828125,9.780662536621094,0.26081767678260803,0.7776673436164856
1659026352280983000,6.318983154296875,9.797411918640137,0.380458801984787,0.7920243144035339
1659026352290653400,6.3286533203125,9.88833999633789,0.45942193269729614,0.7657032608985901
1659026352300323800,6.33832373046875,9.882357597351074,0.3720839321613312,0.7728816866874695
1659026352309994200,6.347994140625,9.767501831054688,0.2799602448940277,0.7645068168640137
1659026352319664600,6.35766455078125,9.832108497619629,0.30508488416671753,0.6963114142417908
1659026352329334800,6.367334716796875,9.78664493560791,0.39960137009620667,0.7226324677467346
1659026352339005200,6.377005126953125,9.743574142456055,0.486939400434494,0.8422735929489136
1659026352348675600,6.386675537109375,9.67657470703125,0.4307080805301666,0.9762716293334961
1659026352358346000,6.396345947265625,9.790233612060547,0.36251261830329895,0.9427721500396729
1659026352368016400,6.406016357421875,9.89432144165039,0.37088751792907715,0.8973084688186646
1659026352377686500,6.4156865234375,9.862018585205078,0.37447673082351685,1.0145567655563354
1659026352387357200,6.425357177734375,9.719645500183105,0.4007977843284607,0.9906286001205444
1659026352397027300,6.43502734375,9.753145217895508,0.4426721930503845,0.8889335989952087
1659026352406697700,6.44469775390625,9.774680137634277,0.5144568681716919,0.7740781307220459
1659026352416368000,6.4543681640625,9.775876998901367,0.4989035129547119,0.7549355626106262
1659026352426038500,6.46403857421875,9.7005033493042,0.42831525206565857,0.7932206988334656
1659026352435708700,6.473708740234375,9.68494987487793,0.38763725757598877,0.833898663520813
1659026352445379000,6.483379150390625,9.77826976776123,0.25363919138908386,1.0217353105545044
1659026352455049500,6.493049560546875,9.80100154876709,0.19262222945690155,1.1389836072921753
1659026352464720000,6.502719970703125,9.795019149780273,0.2847459018230438,1.2454642057418823
1659026352474390300,6.512390380859375,9.77707290649414,0.30508488416671753,1.3423734903335571
1659026352484060400,6.522060302734375,9.597611427307129,0.44386860728263855,1.171286702156067
1659026352493730800,6.531730712890625,9.245866775512695,0.6783652305603027,0.8709874153137207
1659026352503401200,6.541401123046875,9.570094108581543,0.5264210104942322,1.5756736993789673
1659026352513071600,6.551071533203125,9.830911636352539,0.4342973232269287,1.8400806188583374
1659026352522742000,6.560741943359375,9.716055870056152,0.37447673082351685,1.710868239402771
1659026352532412200,6.570412109375,9.882357597351074,0.3517449200153351,1.5912270545959473
1659026352542082800,6.580082763671875,9.89551830291748,0.4546363055706024,1.144965648651123
1659026352551753000,6.5897529296875,9.754341125488281,0.4713860750198364,1.0660024881362915
1659026352561423400,6.59942333984375,9.719645500183105,0.47258245944976807,1.069591760635376
1659026352571093800,6.60909375,9.747162818908691,0.5156532526016235,0.8937192559242249
1659026352580764200,6.61876416015625,9.754341125488281,0.519242525100708,0.7345965504646301
1659026352590434600,6.6284345703125,9.716055870056152,0.4366901218891144,0.7968099117279053
1659026352600104700,6.638104736328125,9.590433120727539,0.363709032535553,0.9200403094291687
1659026352609775000,6.647775146484375,9.546165466308594,0.4342973232269287,1.0133603811264038
1659026352619445500,6.657445556640625,9.559326171875,0.49172505736351013,1.109073281288147
1659026352629116000,6.667115966796875,9.812965393066406,0.5706881880760193,1.2442678213119507
1659026352638786300,6.676786376953125,9.863214492797852,0.7405785918235779,1.1617153882980347
1659026352648456400,6.68645654296875,9.863214492797852,0.7441678643226624,1.0061819553375244
1659026352658126800,6.696126953125,9.964909553527832,0.6329016089439392,0.865005373954773
1659026352667797200,6.70579736328125,9.93260669708252,0.5359922647476196,0.7417750358581543
1659026352677467600,6.715467529296875,9.80100154876709,0.5108676552772522,0.6807580590248108
1659026352687138000,6.725137939453125,9.743574142456055,0.5647061467170715,0.5970092415809631
1659026352696808200,6.73480810546875,9.711270332336426,0.5994020700454712,0.4378865361213684
1659026352706478600,6.744478515625,9.704092025756836,0.6137589812278748,0.3194418251514435
1659026352716149000,6.75414892578125,9.730413436889648,0.5694918036460876,0.21774685382843018
1659026352725819400,6.7638193359375,9.739984512329102,0.5228317379951477,0.22851456701755524
1659026352735489800,6.77348974609375,9.67657470703125,0.5204389095306396,0.2919243574142456
1659026352745160200,6.78316015625,9.651450157165527,0.5156532526016235,0.39601215720176697
1659026352754830300,6.792830322265625,9.708877563476562,0.5084748268127441,0.4713860750198364
1659026352764500700,6.802500732421875,9.805787086486816,0.5551348328590393,0.5132604837417603
1659026352774171100,6.812171142578125,9.814162254333496,0.5874379873275757,0.5395814776420593
1659026352783841500,6.821841552734375,9.845269203186035,0.5539384484291077,0.5204389095306396
1659026352793512000,6.831511962890625,9.842875480651855,0.5335994362831116,0.5048855543136597
1659026352803182000,6.84118212890625,9.77826976776123,0.4785645306110382,0.5228317379951477
1659026352812852500,6.8508525390625,9.77109146118164,0.46420758962631226,0.45224347710609436
1659026352822523000,6.86052294921875,9.736394882202148,0.4307080805301666,0.4785645306110382
1659026352832193300,6.870193359375,9.781859397888184,0.4331009089946747,0.5886343717575073
1659026352841863700,6.87986376953125,9.80937671661377,0.5072783827781677,0.6281159520149231
1659026352851533800,6.889533935546875,9.833304405212402,0.5240281820297241,0.6616154313087463
1659026352861204500,6.89920458984375,9.830911636352539,0.4785645306110382,0.6831508874893188
1659026352870874600,6.90887451171875,9.804591178894043,0.45224347710609436,0.7286145091056824
1659026352880545000,6.918544921875,9.743574142456055,0.42352959513664246,0.778863787651062
1659026352890215400,6.92821533203125,9.710074424743652,0.3888336718082428,0.8267202377319336
1659026352899885800,6.9378857421875,9.731609344482422,0.4103690981864929,0.8219345808029175
1659026352909556200,6.94755615234375,9.719645500183105,0.46061834692955017,0.8255237936973572
1659026352919226400,6.957226318359375,9.674181938171387,0.48574298620224,0.8793623447418213
1659026352928896800,6.966896728515625,9.681360244750977,0.48095735907554626,0.9415757060050964
1659026352938567200,6.976567138671875,9.734002113342285,0.47976094484329224,1.0121639966964722
1659026352948237600,6.986237548828125,9.814162254333496,0.5024927258491516,1.031306505203247
1659026352957908000,6.995907958984375,9.795019149780273,0.5120640397071838,1.0827522277832031
1659026352967578000,7.005578125,9.774680137634277,0.45224347710609436,1.0959128141403198
1659026352977248500,7.01524853515625,9.834501266479492,0.44745782017707825,1.074377417564392
1659026352986919000,7.0249189453125,9.833304405212402,0.46899324655532837,1.1174482107162476
1659026352996589300,7.03458935546875,9.734002113342285,0.5419743061065674,1.1353943347930908
1659026353006259700,7.044259765625,9.66221809387207,0.5563312768936157,1.246660590171814
1659026353015930000,7.05393017578125,9.66819953918457,0.5096712112426758,1.3148560523986816
1659026353025600300,7.063600341796875,9.7064847946167,0.47976094484329224,1.3004990816116333
1659026353035270700,7.073270751953125,9.744770050048828,0.43190449476242065,1.2610175609588623
1659026353044941000,7.082941162109375,9.688538551330566,0.363709032535553,1.231107234954834
1659026353054611500,7.092611572265625,9.696913719177246,0.29790642857551575,1.1330015659332275
1659026353064281900,7.10228173828125,9.77109146118164,0.22612173855304718,1.057627558708191
1659026353073952000,7.111951904296875,9.897911071777344,0.13878370821475983,1.1437692642211914
1659026353083622400,7.121622314453125,9.851250648498535,0.04187439754605293,1.1928220987319946
1659026353093292800,7.131292724609375,9.881160736083984,0.02392822690308094,1.1808580160140991
1659026353102963200,7.140963134765625,10.090533256530762,0.0323031060397625,1.1425727605819702
1659026353112633600,7.150633544921875,10.254441261291504,-0.04187439754605293,1.042074203491211
1659026353122303700,7.1603037109375,10.26640510559082,-0.16151553392410278,0.8721838593482971
1659026353131974100,7.16997412109375,10.125228881835938,-0.2309073805809021,0.7716853022575378
1659026353141644500,7.17964453125,9.906285285949707,-0.380458801984787,0.3601198196411133
1659026353151315000,7.18931494140625,10.05823040008545,-0.45224347710609436,-0.8889335989952087
1659026353160985300,7.1989853515625,10.3621187210083,-0.2799602448940277,-1.786242127418518
1659026353170655500,7.208655517578125,10.658828735351562,-0.09690931439399719,-2.2719850540161133
1659026353180326100,7.218326171875,10.438689231872559,0.10408778488636017,-2.7972097396850586
1659026353189996300,7.227996337890625,10.206584930419922,0.2189432680606842,-3.2614171504974365
1659026353199666700,7.237666748046875,10.40638542175293,0.05383851006627083,-3.359523057937622
1659026353209337000,7.247337158203125,10.498509407043457,-0.27038896083831787,-3.2685956954956055
1659026353219007500,7.257007568359375,10.561919212341309,-0.39601215720176697,-3.314059257507324
1659026353228678000,7.266677978515625,10.674382209777832,-0.0011964113218709826,-3.4683964252471924
1659026353238348000,7.27634814453125,10.75813102722168,0.5395814776420593,-3.755535125732422
1659026353248018400,7.286018310546875,11.115857124328613,0.576670229434967,-4.304687976837158
1659026353257688800,7.295688720703125,11.142178535461426,0.5838487148284912,-4.746163845062256
1659026353267359200,7.305359130859375,11.064412117004395,0.5060819983482361,-4.886143684387207
1659026353277029600,7.315029541015625,10.96869945526123,0.3481557071208954,-4.884947299957275
1659026353286699800,7.32469970703125,10.631311416625977,0.26440688967704773,-5.100301265716553
1659026353296370200,7.3343701171875,10.237691879272461,0.058624155819416046,-5.229514122009277
1659026353306040600,7.34404052734375,9.93260669708252,-0.12801600992679596,-5.279763221740723
1659026353315711000,7.3537109375,9.862018585205078,-0.3038884699344635,-5.227120876312256
1659026353325381000,7.363381103515625,9.913464546203613,-0.4342973232269287,-5.095515727996826
1659026353335051800,7.3730517578125,9.937392234802246,-0.4498506486415863,-5.015356063842773
1659026353344722000,7.382721923828125,9.923035621643066,-0.46061834692955017,-5.054837703704834
1659026353354392300,7.392392333984375,9.80100154876709,-0.4737788736820221,-5.027320384979248
1659026353364062700,7.402062744140625,9.650253295898438,-0.6125625967979431,-4.9435715675354
1659026353373733000,7.411733154296875,9.570094108581543,-0.8386843204498291,-4.871787071228027
1659026353383403500,7.421403564453125,9.650253295898438,-0.9918249845504761,-4.844269275665283
1659026353393073700,7.43107373046875,9.580862045288086,-1.2634103298187256,-4.4721856117248535
1659026353402744000,7.440744140625,9.499505996704102,-1.7180466651916504,-3.9326040744781494
1659026353412414500,7.45041455078125,9.352347373962402,-2.0829520225524902,-3.4648072719573975
1659026353422084900,7.4600849609375,9.273384094238281,-2.4011974334716797,-2.9599215984344482
1659026353431755300,7.46975537109375,9.293723106384277,-2.4909284114837646,-2.5112674236297607
1659026353441425400,7.47942529296875,9.221938133239746,-2.1918256282806396,-2.4885356426239014
1659026353451095800,7.489095703125,9.282955169677734,-2.1511476039886475,-2.3784656524658203
1659026353460766200,7.49876611328125,9.4660062789917,-2.2995026111602783,-2.1678972244262695
1659026353470436600,7.5084365234375,9.424132347106934,-2.341377019882202,-2.0781664848327637
1659026353480107000,7.51810693359375,9.078369140625,-2.392822742462158,-1.9537396430969238
1659026353489777200,7.527777099609375,8.816354751586914,-2.4598217010498047,-1.7778671979904175
1659026353499447600,7.537447509765625,8.785248756408691,-2.510071039199829,-1.557727575302124
1659026353509118000,7.547117919921875,9.005388259887695,-2.7290141582489014,-1.3148560523986816
1659026353518788400,7.556788330078125,9.272188186645508,-2.9766714572906494,-1.093519926071167
1659026353528458800,7.566458740234375,9.329615592956543,-3.152543783187866,-0.8051848411560059
1659026353538129200,7.576129150390625,9.425328254699707,-3.2685956954956055,-0.5575276613235474
1659026353547799300,7.58579931640625,9.577272415161133,-3.280559778213501,-0.33499518036842346
1659026353557469700,7.5954697265625,9.751948356628418,-3.1645078659057617,-0.09092725813388824
1659026353567140000,7.60514013671875,9.991230964660645,-3.071187973022461,0.17587246000766754
1659026353576810500,7.614810546875,10.222138404846191,-3.0305099487304688,0.3278166949748993
1659026353586481000,7.62448095703125,10.358529090881348,-3.108276605606079,0.5120640397071838
1659026353596151000,7.634151123046875,10.504491806030273,-3.1860432624816895,0.7956135272979736
1659026353605821400,7.643821533203125,10.87298583984375,-3.348755359649658,1.007378339767456
1659026353615491800,7.653491943359375,11.316854476928711,-3.4468610286712646,0.9415757060050964
1659026353625162200,7.663162353515625,11.534601211547852,-3.452843189239502,0.745364248752594
1659026353634832600,7.67283251953125,11.570493698120117,-3.342773199081421,0.5635097622871399
1659026353644502800,7.682502685546875,11.417353630065918,-3.218346357345581,0.4486542344093323
1659026353654173400,7.69217333984375,11.235498428344727,-3.291327476501465,0.37088751792907715
1659026353663843600,7.701843505859375,11.093125343322754,-3.4301111698150635,0.3577269911766052
1659026353673514000,7.711513916015625,11.234302520751953,-3.3714871406555176,0.41874396800994873
1659026353683184400,7.721184326171875,11.32522964477539,-3.1932218074798584,0.45942193269729614
1659026353692854800,7.730854736328125,11.297712326049805,-3.0317063331604004,0.4139583110809326
1659026353702525200,7.740525146484375,11.242676734924316,-2.8498518466949463,0.33379876613616943
1659026353712195300,7.7501953125,11.291729927062988,-2.6117658615112305,0.04666004329919815
1659026353721865700,7.75986572265625,11.509476661682129,-2.5016961097717285,-0.13280165195465088
1659026353731536100,7.7695361328125,11.379068374633789,-2.321038007736206,-0.3361915946006775
1659026353741206500,7.77920654296875,11.11346435546875,-2.2480568885803223,-0.6472585201263428
1659026353750876700,7.788876708984375,10.695917129516602,-2.4921247959136963,-0.5730810165405273
1659026353760547000,7.798547119140625,10.472187995910645,-2.9455647468566895,-0.17347964644432068
1659026353770217500,7.808217529296875,10.1276216506958,-3.111865758895874,-0.137587308883667
1659026353779887900,7.817887939453125,9.751948356628418,-3.2004003524780273,-0.18424734473228455
1659026353789558300,7.827558349609375,9.524630546569824,-3.249453067779541,0.13639089465141296
1659026353799228400,7.837228515625,9.509077072143555,-3.1334011554718018,0.605384111404419
1659026353808899000,7.846899169921875,9.696913719177246,-2.730210542678833,0.8434699773788452
1659026353818569200,7.8565693359375,9.8871431350708,-2.3676979541778564,0.7776673436164856
1659026353828239600,7.866239501953125,9.926624298095703,-2.169093608856201,0.6819544434547424
1659026353837910000,7.875909912109375,9.689735412597656,-2.118844509124756,0.8063812255859375
1659026353847580400,7.885580322265625,9.76989459991455,-2.1750757694244385,0.898504912853241
1659026353857250800,7.895250732421875,9.66819953918457,-2.0195422172546387,0.623330295085907
1659026353866921000,7.9049208984375,9.678967475891113,-1.810170292854309,0.3936193287372589
1659026353876591400,7.91459130859375,9.440881729125977,-1.6522440910339355,0.3936193287372589
1659026353886261800,7.92426171875,9.147761344909668,-1.568495273590088,0.46779683232307434
1659026353895932200,7.93393212890625,9.190832138061523,-1.6139588356018066,0.5587241053581238
1659026353905602600,7.9436025390625,9.426525115966797,-1.7336000204086304,0.5419743061065674
1659026353915272700,7.953272705078125,9.615557670593262,-1.8951154947280884,0.4701896607875824
1659026353924943000,7.962943115234375,9.767501831054688,-1.9621145725250244,0.5204389095306396
1659026353934613500,7.972613525390625,9.907482147216797,-1.801795482635498,0.5874379873275757
1659026353944284000,7.982283935546875,10.216156005859375,-1.659422516822815,0.729810893535614
1659026353953954300,7.991954345703125,10.576275825500488,-1.5984054803848267,0.7680960893630981
1659026353963624400,8.00162451171875,10.97468090057373,-1.4847464561462402,0.6759724020957947
1659026353973294800,8.011294921875,11.046465873718262,-1.4524433612823486,0.7190431952476501
1659026353982965200,8.02096533203125,11.073983192443848,-1.4021940231323242,0.7992027401924133
1659026353992635600,8.0306357421875,11.070393562316895,-1.4404792785644531,0.8530412912368774
1659026354002306000,8.04030615234375,10.837093353271484,-1.4500504732131958,0.9212366938591003
1659026354011976400,8.0499765625,10.677970886230469,-1.4344971179962158,0.9379864931106567
1659026354021646600,8.059646484375,10.533205032348633,-1.3674981594085693,0.9092726111412048
1659026354031317000,8.06931689453125,10.418350219726562,-1.3052847385406494,0.8291130661964417
1659026354040987400,8.0789873046875,10.363314628601074,-1.28255295753479,0.8147560954093933
1659026354050657800,8.08865771484375,10.311869621276855,-1.2287144660949707,0.9272187948226929
1659026354060328200,8.098328125,10.24487018585205,-1.074377417564392,1.0719845294952393
1659026354069998300,8.107998291015624,10.277173042297363,-0.9690931439399719,1.210768222808838
1659026354079668700,8.117668701171874,10.258030891418457,-0.9810572862625122,1.3112667798995972
1659026354089339100,8.127339111328125,10.219745635986328,-0.9403793215751648,1.317248821258545
1659026354099009500,8.137009521484375,10.338190078735352,-0.760917603969574,1.1318050622940063
1659026354108680000,8.146679931640625,10.388439178466797,-0.6376872062683105,0.8709874153137207
1659026354118350000,8.15635009765625,10.442277908325195,-0.6293123364448547,0.729810893535614
1659026354128020500,8.1660205078125,10.549955368041992,-0.6711867451667786,0.6783652305603027
1659026354137691000,8.17569091796875,10.596614837646484,-0.6245267391204834,0.6113662123680115
1659026354147361300,8.185361328125,10.552348136901855,-0.5946164131164551,0.5730810165405273
1659026354157031700,8.19503173828125,10.419546127319336,-0.5946164131164551,0.5670989751815796
1659026354166702000,8.2047021484375,10.347761154174805,-0.6221339106559753,0.537188708782196
1659026354176372200,8.214372314453126,10.242477416992188,-0.592223584651947,0.5144568681716919
1659026354186042600,8.224042724609374,10.05823040008545,-0.5156532526016235,0.5264210104942322
1659026354195713000,8.233713134765624,9.8871431350708,-0.43908295035362244,0.5515456199645996
1659026354205383400,8.243383544921874,9.77826976776123,-0.46420758962631226,0.4893322288990021
1659026354215053800,8.2530537109375,9.670592308044434,-0.5084748268127441,0.41994038224220276
1659026354224724000,8.262723876953125,9.611968994140625,-0.44745782017707825,0.33020952343940735
1659026354234394400,8.272394287109375,9.639486312866211,-0.3326023519039154,0.19381862878799438
1659026354244064800,8.282064697265625,9.720842361450195,-0.2153540402650833,0.11485548317432404
1659026354253735200,8.291735107421875,9.897911071777344,-0.1663011759519577,0.003589233849197626
1659026354263405600,8.301405517578125,10.024730682373047,-0.07537391036748886,-0.10767702013254166
1659026354273075700,8.31107568359375,10.12881851196289,-0.03349951654672623,-0.04905286431312561
1659026354282746000,8.32074609375,9.962516784667969,0.15074782073497772,-0.10289137065410614
1659026354292416500,8.33041650390625,9.852447509765625,0.08853443711996078,0.26440688967704773
1659026354302087000,8.3400869140625,9.779465675354004,0.058624155819416046,0.20578274130821228
1659026354311757300,8.34975732421875,9.312865257263184,0.02632104977965355,0.32303106784820557
1659026354321427700,8.359427734375,9.279366493225098,0.039481572806835175,0.6424728631973267
1659026354331097900,8.369097900390624,9.329615592956543,0.09571290761232376,0.6831508874893188
1659026354340768300,8.378768310546874,9.300901412963867,0.0023928226437419653,0.6041877269744873
1659026354350438700,8.388438720703125,9.139386177062988,-0.06580262631177902,0.5120640397071838
1659026354360109000,8.398109130859375,9.10110092163086,-0.039481572806835175,0.5000999569892883
1659026354369779500,8.407779541015625,9.158528327941895,0.016749758273363113,0.50129634141922
1659026354379449600,8.41744970703125,9.371489524841309,-0.1423729509115219,0.5324030518531799
1659026354389120000,8.4271201171875,9.513862609863281,-0.2883351147174835,0.6305087804794312
1659026354398790400,8.436790283203125,9.489934921264648,-0.4223332107067108,0.7908278703689575
1659026354408460800,8.446460693359375,9.425328254699707,-0.38644084334373474,0.8841479420661926
1659026354418131200,8.456131103515625,9.43609619140625,-0.34217363595962524,0.8745766878128052
1659026354427801300,8.46580126953125,9.531808853149414,-0.43190449476242065,0.7860422134399414
1659026354437471700,8.4754716796875,9.672985076904297,-0.4666004180908203,0.6747759580612183
1659026354447142100,8.48514208984375,9.78664493560791,-0.41874396800994873,0.5383850932121277
1659026354456812500,8.4948125,9.857233047485352,-0.4139583110809326,0.4785645306110382
1659026354466483000,8.50448291015625,9.893125534057617,-0.4582255482673645,0.4307080805301666
1659026354476153000,8.514153076171874,10.079765319824219,-0.42711883783340454,0.35413774847984314
1659026354485823500,8.523823486328125,10.302297592163086,-0.4091726839542389,0.2727817893028259
1659026354495494000,8.533493896484375,10.476973533630371,-0.4414757788181305,0.1986042857170105
1659026354505164300,8.543164306640625,10.49970531463623,-0.4953143000602722,0.20458634197711945
1659026354514834700,8.552834716796875,10.409975051879883,-0.49651068449020386,0.33858439326286316
1659026354524505000,8.562505126953125,10.26640510559082,-0.5252245664596558,0.5024927258491516
1659026354534175200,8.57217529296875,10.286744117736816,-0.5324030518531799,0.49172505736351013
1659026354543845600,8.581845703125,10.460224151611328,-0.4773681163787842,0.3397808074951172
1659026354553516000,8.59151611328125,10.518848419189453,-0.43190449476242065,0.19262222945690155
1659026354563186400,8.6011865234375,10.475777626037598,-0.39840495586395264,0.10169496387243271
1659026354572856800,8.61085693359375,10.394421577453613,-0.41515472531318665,-0.003589233849197626
1659026354582527000,8.62052685546875,10.334601402282715,-0.4211367964744568,-0.08374879509210587
1659026354592197400,8.630197265625,10.341779708862305,-0.4618147611618042,-0.12442677468061447
1659026354601867800,8.63986767578125,10.295119285583496,-0.5000999569892883,-0.10049854964017868
1659026354611538200,8.6495380859375,10.279565811157227,-0.5264210104942322,-0.008374879136681557
1659026354621208600,8.65920849609375,10.243673324584961,-0.5527420043945312,0.0729810893535614
1659026354630878700,8.668878662109375,10.25922679901123,-0.5706881880760193,0.06580262631177902
1659026354640549000,8.678549072265625,10.241280555725098,-0.5647061467170715,0.020338991656899452
1659026354650219500,8.688219482421875,10.183853149414062,-0.5264210104942322,0.016749758273363113
1659026354659890000,8.697889892578125,10.114460945129395,-0.5204389095306396,0.10049854964017868
1659026354669560300,8.707560302734375,10.01156997680664,-0.5838487148284912,0.2392822653055191
1659026354679230700,8.717230712890625,9.962516784667969,-0.6173482537269592,0.36729827523231506
1659026354688900900,8.72690087890625,9.881160736083984,-0.605384111404419,0.41156548261642456
1659026354698571300,8.7365712890625,9.81535816192627,-0.6317051649093628,0.4007977843284607
1659026354708241700,8.74624169921875,9.80219841003418,-0.7537391185760498,0.4175475537776947
1659026354717912000,8.755912109375,9.826126098632812,-0.7704889178276062,0.46779683232307434
1659026354727582500,8.76558251953125,9.889535903930664,-0.7286145091056824,0.5982056856155396
1659026354737252600,8.775252685546874,9.899106979370117,-0.6879364848136902,0.698704183101654
1659026354746923000,8.784923095703125,9.900303840637207,-0.5934200286865234,0.6891329288482666
1659026354756593400,8.794593505859375,9.927821159362793,-0.5814558863639832,0.6532405614852905
1659026354766263800,8.804263916015625,9.923035621643066,-0.5144568681716919,0.6687939167022705
1659026354775934200,8.813934326171875,9.962516784667969,-0.35533416271209717,0.6699903607368469
1659026354785604400,8.823604248046875,10.091729164123535,-0.32542386651039124,0.638883650302887
1659026354795274800,8.833274658203125,10.225728034973145,-0.43549370765686035,0.6340979933738708
1659026354804945200,8.842945068359375,10.195816993713379,-0.5431707501411438,0.6029912829399109
1659026354814615600,8.852615478515625,10.04985523223877,-0.5216353535652161,0.6029912829399109
1659026354824286000,8.862285888671876,9.93380355834961,-0.4785645306110382,0.6305087804794312
1659026354833956400,8.871956298828126,9.878767967224121,-0.4701896607875824,0.6687939167022705
1659026354843626500,8.88162646484375,9.926624298095703,-0.5060819983482361,0.6747759580612183
1659026354853297000,8.891296875,9.984052658081055,-0.5718846321105957,0.7597211599349976
1659026354862967300,8.90096728515625,9.967302322387695,-0.623330295085907,0.8973084688186646
1659026354872637700,8.9106376953125,9.908679008483887,-0.6604190468788147,1.0432707071304321
1659026354882308000,8.92030810546875,9.850054740905762,-0.6687939167022705,1.058824062347412
1659026354891978200,8.929978271484375,9.921838760375977,-0.6675975322723389,1.0360921621322632
1659026354901648600,8.939648681640625,10.191031455993652,-0.727418065071106,1.0061819553375244
1659026354911319000,8.949319091796875,10.388439178466797,-0.8446664214134216,1.0013962984085083
1659026354920989400,8.958989501953125,10.382457733154297,-0.8410771489143372,1.0001999139785767
1659026354930659800,8.968659912109375,10.340582847595215,-0.6879364848136902,1.0253244638442993
1659026354940330000,8.978330078125,10.197013854980469,-0.5718846321105957,1.1114661693572998
1659026354950000400,8.98800048828125,10.000802040100098,-0.45583271980285645,1.1736794710159302
1659026354959670800,8.9976708984375,9.879964828491211,-0.25722843408584595,1.0683952569961548
1659026354969341200,9.007341064453126,9.903892517089844,-0.09810572862625122,0.9391828775405884
1659026354979011300,9.01701123046875,9.891928672790527,0.0023928226437419653,0.8398807644844055
1659026354988682000,9.026681884765624,9.829715728759766,0.062213387340307236,0.8147560954093933
1659026354998352100,9.03635205078125,9.750752449035645,0.013160524889826775,0.8327022790908813
1659026355008022500,9.0460224609375,9.602396965026855,-0.0011964113218709826,0.8147560954093933
1659026355017693000,9.05569287109375,9.371489524841309,0.058624155819416046,0.763310432434082
1659026355027363300,9.06536328125,9.299705505371094,0.05383851006627083,0.6831508874893188
1659026355037033700,9.07503369140625,9.371489524841309,-0.01196411345154047,0.6113662123680115
1659026355046703900,9.084703857421875,9.468399047851562,0.0011964113218709826,0.5742774605751038
1659026355056374300,9.094374267578125,9.550951957702637,0.09212367236614227,0.5551348328590393
1659026355066044700,9.104044677734375,9.725627899169922,0.16510476171970367,0.5802595019340515
1659026355075715000,9.113715087890625,9.761520385742188,0.10169496387243271,0.6616154313087463
1659026355085385200,9.12338525390625,9.745966911315918,0.04666004329919815,0.7441678643226624
1659026355095055600,9.1330556640625,9.805787086486816,0.037088751792907715,0.8195417523384094
1659026355104726000,9.14272607421875,9.768698692321777,0.04546362906694412,0.8267202377319336
1659026355114396400,9.152396484375,9.65384292602539,0.061016976833343506,0.7645068168640137
1659026355124066800,9.16206689453125,9.584450721740723,0.058624155819416046,0.711864709854126
1659026355133737000,9.171737060546874,9.689735412597656,0.058624155819416046,0.625723123550415
1659026355143407400,9.181407470703125,9.77109146118164,0.038285162299871445,0.5551348328590393
1659026355153077800,9.191077880859375,9.858428955078125,-0.04666004329919815,0.6149554252624512
1659026355162748200,9.200748046875,9.885947227478027,-0.10169496387243271,0.7465606927871704
1659026355172418600,9.21041845703125,9.872786521911621,-0.09930214285850525,0.8446664214134216
1659026355182089000,9.2200888671875,9.89551830291748,-0.15074782073497772,0.9248259663581848
1659026355191759400,9.22975927734375,9.931410789489746,-0.19621145725250244,0.9535398483276367
1659026355201429500,9.239429443359375,9.943374633789062,-0.16031911969184875,0.9355936646461487
1659026355211100000,9.249099853515625,9.996016502380371,-0.1663011759519577,0.9403793215751648
1659026355220770300,9.258770263671876,9.998409271240234,-0.2189432680606842,1.046859860420227
1659026355230440700,9.268440673828126,9.942177772521973,-0.1818545162677765,1.191625714302063
1659026355240110800,9.27811083984375,9.860821723937988,-0.1902294009923935,1.2502498626708984
1659026355249781200,9.28778125,9.8871431350708,-0.2679961323738098,1.2179467678070068
1659026355259451600,9.29745166015625,10.01994514465332,-0.1866401731967926,1.0564311742782593
1659026355269122000,9.3071220703125,10.12881851196289,-0.008374879136681557,0.8578268885612488
1659026355278792400,9.31679248046875,10.236495018005371,0.05144568532705307,0.6436693072319031
1659026355288462600,9.326462646484375,10.321440696716309,0.04546362906694412,0.5108676552772522
1659026355298133000,9.336133056640625,10.469795227050781,0.10049854964017868,0.4534398913383484
1659026355307803400,9.345803466796875,10.529616355895996,0.23688943684101105,0.364905446767807
1659026355317473800,9.355473876953125,10.51645565032959,0.31824541091918945,0.33858439326286316
1659026355327144200,9.365144287109375,10.40040397644043,0.3206382393836975,0.37447673082351685
1659026355336814600,9.374814697265625,10.15753173828125,0.2679961323738098,0.4259224236011505
1659026355346484700,9.384484619140625,9.851250648498535,0.2847459018230438,0.37806597352027893
1659026355356155100,9.394155029296876,9.678967475891113,0.27756741642951965,0.2392822653055191
1659026355365825500,9.403825439453126,9.609575271606445,0.1866401731967926,0.035892341285943985
1659026355375496000,9.413495849609374,9.682557106018066,0.19381862878799438,-0.17946170270442963
1659026355385166300,9.423166259765624,9.866804122924805,0.19621145725250244,-0.40677985548973083
1659026355394836500,9.43283642578125,10.047462463378906,0.2584248483181,-0.5670989751815796
1659026355404507000,9.4425068359375,10.204192161560059,0.35533416271209717,-0.5946164131164551
1659026355414177300,9.45217724609375,10.197013854980469,0.26440688967704773,-0.4498506486415863
1659026355423847700,9.46184765625,9.958928108215332,-0.03349951654672623,0
1659026355433518000,9.47151806640625,9.686145782470703,-0.33499518036842346,0.19381862878799438
1659026355443188200,9.481188232421875,9.834501266479492,0.40797626972198486,-0.3122633695602417
1659026355452858600,9.490858642578125,9.117850303649902,-0.031106693670153618,0.13160525262355804
1659026355462529000,9.500529052734375,9.321240425109863,-0.15314064919948578,0.2632105052471161
1659026355472199400,9.510199462890625,9.276973724365234,-0.039481572806835175,-0.004785645287483931
1659026355481869600,9.51986962890625,9.083154678344727,-0.017946170642971992,-0.24287149310112
1659026355491540000,9.5295400390625,9.280562400817871,-0.09092725813388824,-0.3002992272377014
1659026355501210400,9.53921044921875,9.66819953918457,-0.10049854964017868,-0.3206382393836975
1659026355510880800,9.548880859375,9.835697174072266,0.0323031060397625,-0.3278166949748993
1659026355520551200,9.55855126953125,9.91825008392334,0.04307080805301666,-0.13519448041915894
1659026355530221600,9.5682216796875,9.920642852783203,-0.061016976833343506,0.17347964644432068
1659026355539892000,9.57789208984375,9.779465675354004,-0.04905286431312561,0.29790642857551575
1659026355549562000,9.58756201171875,9.7064847946167,-0.10408778488636017,0.40319061279296875
1659026355559232500,9.597232421875,9.663414001464844,-0.11844471842050552,0.4103690981864929
1659026355568903000,9.60690283203125,9.635896682739258,-0.13280165195465088,0.364905446767807
1659026355578573300,9.6165732421875,9.56770133972168,-0.15314064919948578,0.2679961323738098
1659026355588243500,9.626243408203125,9.499505996704102,-0.15194423496723175,0.23688943684101105
1659026355597913900,9.635913818359375,9.561718940734863,-0.13639089465141296,0.20458634197711945
1659026355607584300,9.645584228515625,9.638289451599121,-0.16749759018421173,0.17108681797981262
1659026355617254700,9.655254638671876,9.708877563476562,-0.13878370821475983,0.12203395366668701
1659026355626925000,9.664925048828126,9.783055305480957,-0.06580262631177902,0.13160525262355804
1659026355636595200,9.67459521484375,9.840482711791992,-0.008374879136681557,0.1950150430202484
1659026355646265600,9.684265625,9.871589660644531,-0.02153540402650833,0.3074777126312256
1659026355655936000,9.69393603515625,9.915857315063477,-0.12801600992679596,0.5335994362831116
1659026355665606400,9.7036064453125,9.954142570495605,-0.21176479756832123,0.711864709854126
1659026355675276800,9.71327685546875,10.021141052246094,-0.259621262550354,0.9056833982467651
1659026355684947000,9.722947021484375,10.15753173828125,-0.31824541091918945,1.0552347898483276
1659026355694617300,9.732617431640625,10.248459815979004,-0.2584248483181,1.089930772781372
1659026355704287700,9.742287841796875,10.222138404846191,-0.13280165195465088,1.069591760635376
1659026355713958100,9.751958251953125,10.06421184539795,-0.08374879509210587,0.9774680733680725
1659026355723628500,9.761628662109375,9.859625816345215,-0.10648060590028763,0.882951557636261
1659026355733299000,9.771298828125,9.651450157165527,-0.1902294009923935,0.8219345808029175
1659026355742969000,9.780968994140625,9.57487964630127,-0.20458634197711945,0.7537391185760498
1659026355752639500,9.790639404296876,9.608379364013672,-0.19142581522464752,0.6843472719192505
1659026355762310000,9.800309814453126,9.688538551330566,-0.19740787148475647,0.6640082597732544
1659026355771980300,9.809980224609374,9.80817985534668,-0.10887342691421509,0.623330295085907
1659026355781650700,9.819650634765624,9.951749801635742,0.02512463741004467,0.5216353535652161
1659026355791320800,9.82932080078125,10.125228881835938,0.09092725813388824,0.36729827523231506
1659026355800991200,9.8389912109375,10.1276216506958,0.12323036789894104,0.1459621787071228
1659026355810661600,9.84866162109375,9.969695091247559,0.17706887423992157,-0.04546362906694412
1659026355820332000,9.85833203125,9.783055305480957,0.2309073805809021,-0.22612173855304718
1659026355830002200,9.868002197265625,9.572486877441406,0.29312077164649963,-0.43549370765686035
1659026355839672600,9.877672607421875,9.53061294555664,0.36610186100006104,-0.6269195079803467
1659026355849343000,9.887343017578125,9.627521514892578,0.41874396800994873,-0.6687939167022705
1659026355859013400,9.897013427734375,9.810572624206543,0.5048855543136597,-0.6005984544754028
1659026355868683800,9.906683837890625,9.981659889221191,0.5694918036460876,-0.48574298620224
1659026355878354000,9.91635400390625,10.171889305114746,0.5910272002220154,-0.3038884699344635
1659026355888024600,9.926024658203126,10.28315544128418,0.5300102233886719,-0.16510476171970367
1659026355897694700,9.93569482421875,10.26640510559082,0.42352959513664246,-0.059820566326379776
1659026355907365000,9.945365234375,10.309475898742676,0.3314059376716614,-0.06340979784727097
1659026355917035500,9.955035400390624,10.381260871887207,0.363709032535553,-0.18783657252788544
1659026355926706000,9.964705810546874,10.316655158996582,0.3601198196411133,-0.30508488416671753
1659026355936376000,9.9743759765625,10.185050010681152,0.20937198400497437,-0.2919243574142456
1659026355946046500,9.98404638671875,10.03549861907959,0.13040883839130402,-0.2392822653055191
1659026355955716900,9.993716796875,9.93260669708252,0.15314064919948578,-0.2273181527853012
1659026355965387300,10.00338720703125,10.007980346679688,0.15672987699508667,-0.2763710021972656
1659026355975057700,10.0130576171875,10.036694526672363,0.15912270545959473,-0.24885354936122894
1659026355984727800,10.022727783203125,10.097711563110352,0.1818545162677765,-0.16031911969184875
1659026355994398200,10.032398193359375,10.15155029296875,0.22612173855304718,-0.020338991656899452
1659026356004068600,10.042068603515625,10.16710376739502,0.2919243574142456,0.16271193325519562
1659026356013739000,10.051739013671876,10.090533256530762,0.31345975399017334,0.2847459018230438
1659026356023409200,10.0614091796875,9.878767967224121,0.31345975399017334,0.32303106784820557
1659026356033079600,10.07107958984375,9.69930648803711,0.3577269911766052,0.36251261830329895
1659026356042750000,10.08075,9.584450721740723,0.38285163044929504,0.4570291340351105
1659026356052420400,10.09042041015625,9.519845008850098,0.4175475537776947,0.5096712112426758
1659026356062090800,10.1000908203125,9.452845573425293,0.4737788736820221,0.6747759580612183
1659026356071761200,10.10976123046875,9.384650230407715,0.5120640397071838,0.9379864931106567
1659026356081431600,10.119431640625,9.360722541809082,0.5742774605751038,1.2251251935958862
1659026356091101700,10.129101806640625,9.442078590393066,0.6436693072319031,1.4476577043533325
1659026356100772000,10.138772216796875,9.516255378723145,0.8111668825149536,1.6235301494598389
1659026356110442500,10.1484423828125,9.528220176696777,0.9020941257476807,1.730010747909546
1659026356120113000,10.15811279296875,9.595218658447266,0.8542376756668091,1.810170292854309
1659026356129783000,10.167782958984375,9.467203140258789,0.8973084688186646,1.7682958841323853
1659026356139453400,10.177453369140625,9.481559753417969,0.849452018737793,1.947757601737976
1659026356149123800,10.187123779296876,9.433703422546387,0.8135597109794617,1.9848463535308838
1659026356158794200,10.196794189453126,9.425328254699707,0.8231309652328491,1.932204246520996
1659026356168464600,10.206464599609374,9.561718940734863,0.714257538318634,1.9417755603790283
1659026356178134800,10.216134765625,9.774680137634277,0.5611169338226318,1.9956140518188477
1659026356187805200,10.22580517578125,10.076175689697266,0.5383850932121277,1.9860427379608154
1659026356197475600,10.2354755859375,10.3681001663208,0.5670989751815796,1.9142581224441528
1659026356207146000,10.24514599609375,10.564311981201172,0.6065805554389954,1.8831514120101929
1659026356216816000,10.254816162109375,10.608579635620117,0.6484549641609192,1.832902193069458
1659026356226486500,10.264486572265625,10.527223587036133,0.7585247755050659,1.7324036359786987
1659026356236157000,10.274156982421875,10.418350219726562,0.8243274092674255,1.6187444925308228
1659026356245827300,10.283827392578125,10.213763236999512,0.9224331378936768,1.4500504732131958
1659026356255497700,10.293497802734375,9.869196891784668,0.989432156085968,1.3615161180496216
1659026356265168100,10.303168212890625,9.573683738708496,0.9702895879745483,1.3507484197616577
1659026356274838500,10.312838623046876,9.500701904296875,0.9583254456520081,1.3088740110397339
1659026356284508700,10.3225087890625,9.497113227844238,1.0193424224853516,1.246660590171814
1659026356294179000,10.332178955078126,9.588040351867676,1.1174482107162476,1.1976077556610107
1659026356303849500,10.341849365234374,9.754341125488281,1.2035897970199585,1.1976077556610107
1659026356313519900,10.351519775390624,9.896714210510254,1.3052847385406494,1.1473584175109863
1659026356323190000,10.36118994140625,9.956535339355469,1.3423734903335571,1.1030912399291992
1659026356332860400,10.3708603515625,9.934999465942383,1.3519448041915894,0.9643075466156006
1659026356342530800,10.38053076171875,9.80219841003418,1.373480200767517,0.8422735929489136
1659026356352201200,10.390201171875,9.597611427307129,1.4105689525604248,0.7860422134399414
1659026356361871600,10.39987158203125,9.340383529663086,1.3076776266098022,0.7429714202880859
1659026356371541800,10.409541748046875,9.314062118530273,1.155733346939087,0.7334001660346985
1659026356381212200,10.419212158203125,9.425328254699707,1.1114661693572998,0.7070791125297546
1659026356390882600,10.428882568359375,9.657432556152344,1.1425727605819702,0.6855437159538269
1659026356400553000,10.438552978515625,9.7938232421875,1.1150553226470947,0.729810893535614
1659026356410223000,10.44822314453125,9.93380355834961,1.153340458869934,0.7286145091056824
1659026356419893500,10.4578935546875,9.993623733520508,1.2059825658798218,0.7513462901115417
1659026356429564000,10.46756396484375,9.949356079101562,1.2382856607437134,0.7992027401924133
1659026356439234300,10.477234375,9.8871431350708,1.262213945388794,0.7776673436164856
1659026356448904700,10.48690478515625,9.863214492797852,1.3208380937576294,0.6245267391204834
1659026356458575000,10.4965751953125,9.865608215332031,1.357926845550537,0.49292147159576416
1659026356468245500,10.50624560546875,9.870393753051758,1.3902299404144287,0.4366901218891144
1659026356477915600,10.51591552734375,9.696913719177246,1.4165509939193726,0.32662028074264526
1659026356487586000,10.5255859375,9.592825889587402,1.4273186922073364,0.27038896083831787
1659026356497256400,10.53525634765625,9.56770133972168,1.4500504732131958,0.21655045449733734
1659026356506926800,10.5449267578125,9.542576789855957,1.4273186922073364,0.13878370821475983
1659026356516597000,10.554596923828125,9.572486877441406,1.3962119817733765,0.05383851006627083
1659026356526267400,10.564267333984375,9.626325607299805,1.3770694732666016,-0.06819544732570648
1659026356535937800,10.573937744140625,9.69930648803711,1.399801254272461,-0.17587246000766754
1659026356545608200,10.583608154296876,9.773484230041504,1.3866406679153442,-0.21296121180057526
1659026356555278600,10.593278564453126,9.755537986755371,1.3459627628326416,-0.17347964644432068
1659026356564948700,10.60294873046875,9.718449592590332,1.3148560523986816,-0.14476576447486877
1659026356574619100,10.612619140625,9.667003631591797,1.2969099283218384,-0.1052841991186142
1659026356584289500,10.62228955078125,9.693324089050293,1.2562319040298462,-0.07178468257188797
1659026356593960000,10.6319599609375,9.693324089050293,1.2801600694656372,-0.10289137065410614
1659026356603630000,10.641630126953125,9.634700775146484,1.3351950645446777,-0.16869398951530457
1659026356613300700,10.65130078125,9.635896682739258,1.2717852592468262,-0.14476576447486877
1659026356622971000,10.660970947265625,9.658628463745117,1.1820544004440308,-0.11006984114646912
1659026356632641300,10.670641357421875,9.710074424743652,1.1880364418029785,-0.10049854964017868
1659026356642311700,10.680311767578125,9.885947227478027,1.231107234954834,-0.08255238085985184
1659026356651982000,10.689982177734375,9.993623733520508,1.2215359210968018,-0.039481572806835175
1659026356661652200,10.69965234375,9.92423152923584,1.262213945388794,-0.040677983313798904
1659026356671322600,10.709322509765625,9.820143699645996,1.2741780281066895,-0.0933200865983963
1659026356680993000,10.718992919921876,9.731609344482422,1.275374412536621,-0.15074782073497772
1659026356690663400,10.728663330078126,9.644271850585938,1.2335001230239868,-0.17946170270442963
1659026356700333800,10.738333740234374,9.577272415161133,1.1988041400909424,-0.14835500717163086
1659026356710004000,10.74800390625,9.55214786529541,1.1976077556610107,-0.16031911969184875
1659026356719674400,10.75767431640625,9.614361763000488,1.2179467678070068,-0.22013968229293823
1659026356729344800,10.7673447265625,9.76391315460205,1.2191431522369385,-0.3481557071208954
1659026356739015200,10.77701513671875,9.967302322387695,1.200000524520874,-0.4103690981864929
1659026356748685300,10.786685302734375,10.1276216506958,1.155733346939087,-0.4127618968486786
1659026356758355700,10.796355712890625,10.15155029296875,1.1389836072921753,-0.3517449200153351
1659026356768026000,10.806026123046875,10.106086730957031,1.1485549211502075,-0.2512463629245758
1659026356777696500,10.815696533203125,10.031908988952637,1.124626636505127,-0.15553347766399384
1659026356787367000,10.825366943359375,9.980463027954102,1.1102696657180786,-0.0849452018737793
1659026356797037000,10.835037109375,9.945767402648926,1.207179069519043,-0.1136590763926506
1659026356806707700,10.844707763671876,10.039087295532227,1.332802176475525,-0.28594231605529785
1659026356816377900,10.8543779296875,10.091729164123535,1.3304094076156616,-0.3924229145050049
1659026356826048300,10.86404833984375,10.017552375793457,1.293320655822754,-0.4103690981864929
1659026356835718700,10.87371875,9.942177772521973,1.246660590171814,-0.33020952343940735
1659026356845389000,10.88338916015625,9.859625816345215,1.2131611108779907,-0.19621145725250244
1659026356855059200,10.89305908203125,9.7064847946167,1.1880364418029785,-0.013160524889826775
1659026356864729600,10.9027294921875,9.573683738708496,1.1868400573730469,0.12203395366668701
1659026356874400000,10.91239990234375,9.460023880004883,1.246660590171814,0.15314064919948578
1659026356884070400,10.9220703125,9.378668785095215,1.3100703954696655,0.12681959569454193
1659026356893740800,10.93174072265625,9.337990760803223,1.4165509939193726,0.0323031060397625
1659026356903411000,10.941410888671875,9.32722282409668,1.4775680303573608,-0.08733802288770676
1659026356913081300,10.951081298828125,9.235098838806152,1.4991034269332886,-0.13280165195465088
1659026356922751700,10.960751708984375,9.312865257263184,1.4739787578582764,-0.13519448041915894
1659026356932422100,10.970422119140625,9.480362892150879,1.6223337650299072,-0.08135596662759781
1659026356942092300,10.98009228515625,9.4660062789917,1.657029628753662,0.1543370634317398
1659026356951762700,10.9897626953125,9.120243072509766,1.451246976852417,0.5096712112426758
1659026356961433000,10.99943310546875,9.058030128479004,2.6668007373809814,0.43908295035362244
1659026356971103500,11.009103515625,7.402196884155273,1.317248821258545,0.020338991656899452
1659026356980774000,11.01877392578125,4.339384078979492,-0.537188708782196,-0.19381862878799438
1659026356990444000,11.028444091796874,8.218149185180664,0.7405785918235779,-1.1581261157989502
1659026357000114400,11.038114501953125,8.926424980163574,2.7565317153930664,-2.719442844390869
1659026357009784800,11.047784912109375,8.293522834777832,3.2937204837799072,-3.074777126312256
1659026357019455200,11.057455322265625,8.81396198272705,1.5469598770141602,-1.3076776266098022
1659026357029125600,11.067125732421875,10.319047927856445,0.9391828775405884,0.22013968229293823
1659026357038796000,11.076796142578125,11.09910774230957,1.4943177700042725,0.7369893789291382
1659026357048466200,11.086466064453125,11.233105659484863,1.4991034269332886,0.6329016089439392
1659026357058136600,11.096136474609375,11.527422904968262,1.0600204467773438,0.17706887423992157
1659026357067807000,11.105806884765625,10.716256141662598,0.41156548261642456,-0.3038884699344635
1659026357077477400,11.115477294921876,10.186245918273926,0.4749752879142761,-0.8721838593482971
1659026357087147500,11.1251474609375,10.053443908691406,1.0097711086273193,-1.9046868085861206
