time,seconds_elapsed,z,y,x
1659026345994135800,0.0321357421875,9.801111221313477,0.3293786644935608,0.010779665783047676
1659026346003806200,0.04180615234375,9.801000595092773,0.33265599608421326,0.010201934725046158
1659026346013476600,0.0514765625,9.801185607910156,0.32726001739501953,0.0075517091900110245
1659026346023146800,0.061146728515625,9.801427841186523,0.3199942111968994,0.0038627965841442347
1659026346032817200,0.070817138671875,9.801515579223633,0.3173099160194397,0.0006945797940716147
1659026346042487600,0.080487548828125,9.801547050476074,0.31632670760154724,-0.0013463859213516116
1659026346052158000,0.090157958984375,9.801575660705566,0.31543105840682983,0.0005526136374101043
1659026346061828400,0.099828369140625,9.801599502563477,0.3146842122077942,0.0015274891629815102
1659026346071498500,0.10949853515625,9.80166244506836,0.3127088248729706,0.0003154879086650908
1659026346081169000,0.1191689453125,9.80173110961914,0.3105669617652893,-0.000798475812189281
1659026346090839300,0.12883935546875,9.801800727844238,0.3083607256412506,-0.0014928678283467889
1659026346100509700,0.138509765625,9.801795959472656,0.3085000813007355,-0.001843891805037856
1659026346110180000,0.14818017578125,9.801815032958984,0.3079080879688263,-0.00048359320499002934
1659026346119850500,0.1578505859375,9.801782608032227,0.3089336156845093,-0.00033493354567326605
1659026346129521000,0.16752099609375,9.801788330078125,0.30874982476234436,-0.00116951041854918
1659026346139191000,0.17719091796875,9.801775932312012,0.3091544806957245,-0.0012753552291542292
1659026346148861400,0.186861328125,9.801766395568848,0.30946221947669983,-0.0005967782926745713
1659026346158531800,0.19653173828125,9.801806449890137,0.30820682644844055,-0.000008112137948046438
1659026346168202200,0.2062021484375,9.801804542541504,0.30822262167930603,0.0009360520052723587
1659026346177872400,0.215872314453125,9.801814079284668,0.3079100549221039,0.0017805893439799547
1659026346187542800,0.225542724609375,9.801801681518555,0.308325856924057,0.003058450063690543
1659026346197213200,0.235213134765625,9.801820755004883,0.30771100521087646,0.003516226541250944
1659026346206883600,0.244883544921875,9.801831245422363,0.3073626756668091,0.004041427280753851
1659026346216554000,0.254553955078125,9.801865577697754,0.30624914169311523,0.004440806806087494
1659026346226224000,0.26422412109375,9.801883697509766,0.30569255352020264,0.005025635939091444
1659026346235894500,0.27389453125,9.801889419555664,0.305485337972641,0.005087238736450672
1659026346245565000,0.28356494140625,9.801886558532715,0.3056057095527649,0.004811989609152079
1659026346255235300,0.2932353515625,9.80188274383545,0.30571892857551575,0.004609089344739914
1659026346264905700,0.30290576171875,9.801870346069336,0.30614861845970154,0.004156735725700855
1659026346274576000,0.312575927734375,9.801859855651855,0.30644381046295166,0.003719271393492818
1659026346284246500,0.32224658203125,9.801858901977539,0.3065139949321747,0.0029891517478972673
1659026346293916700,0.331916748046875,9.801850318908691,0.30677393078804016,0.0027774556074291468
1659026346303587000,0.341587158203125,9.801851272583008,0.30677616596221924,0.0025365904439240694
1659026346313257500,0.351257568359375,9.801859855651855,0.306462824344635,0.0026085085701197386
1659026346322927900,0.360927978515625,9.801858901977539,0.30649322271347046,0.002023592358455062
1659026346332598300,0.370598388671875,9.801867485046387,0.30621692538261414,0.001596365007571876
1659026346342268400,0.380268310546875,9.80187702178955,0.305921345949173,0.0014503286220133305
1659026346351938800,0.389938720703125,9.8018798828125,0.3058411478996277,0.0013467168901115656
1659026346361609200,0.399609130859375,9.801885604858398,0.3056451380252838,0.001333701191470027
1659026346371279600,0.409279541015625,9.801885604858398,0.3056221902370453,0.001028508529998362
1659026346380949800,0.41894970703125,9.80189323425293,0.3053880035877228,0.0012921199668198824
1659026346390620200,0.4286201171875,9.801900863647461,0.30519333481788635,0.001456536934711039
1659026346400290600,0.43829052734375,9.801892280578613,0.30542629957199097,0.0016152244061231613
1659026346409961000,0.4479609375,9.801892280578613,0.3054409921169281,0.0016820864984765649
1659026346419631400,0.45763134765625,9.801888465881348,0.30556371808052063,0.0016945332754403353
1659026346429301500,0.467301513671875,9.80187702178955,0.3059270679950714,0.0019661709666252136
1659026346438972200,0.47697216796875,9.8018798828125,0.3058491349220276,0.0022041662596166134
1659026346448642300,0.486642333984375,9.801888465881348,0.30554428696632385,0.0025574127212166786
1659026346458312700,0.496312744140625,9.801891326904297,0.3054601550102234,0.0026271273382008076
1659026346467983000,0.505983154296875,9.801888465881348,0.3055470287799835,0.00271145673468709
1659026346477653500,0.515653564453125,9.801897048950195,0.30527740716934204,0.0028428821824491024
1659026346487324000,0.525323974609375,9.801896095275879,0.30530470609664917,0.002938999095931649
1659026346496994000,0.534994140625,9.801896095275879,0.30530229210853577,0.002930654212832451
1659026346506664400,0.54466455078125,9.801901817321777,0.30512022972106934,0.0030202993657439947
1659026346516334800,0.5543349609375,9.801899909973145,0.3051612675189972,0.003013051114976406
1659026346526005200,0.564005126953125,9.80190372467041,0.3050261437892914,0.0029493807815015316
1659026346535675400,0.57367529296875,9.801901817321777,0.30512961745262146,0.002756369998678565
1659026346545345800,0.583345703125,9.801898956298828,0.30521637201309204,0.0025402866303920746
1659026346555016200,0.59301611328125,9.80189323425293,0.30538836121559143,0.002509338315576315
1659026346564686600,0.6026865234375,9.801888465881348,0.3055470883846283,0.00247769127599895
1659026346574357000,0.61235693359375,9.80190658569336,0.3049834966659546,0.0027730970177799463
1659026346584027100,0.622027099609375,9.801972389221191,0.30282264947891235,0.005055214278399944
1659026346593697500,0.631697509765625,9.802092552185059,0.298790842294693,0.009414250031113625
1659026346603368000,0.641367919921875,9.802241325378418,0.29363885521888733,0.015398867428302765
1659026346613038300,0.651038330078125,9.802331924438477,0.29030582308769226,0.019980283454060555
1659026346622708700,0.660708740234375,9.802369117736816,0.28892454504966736,0.021427713334560394
1659026346632379100,0.670379150390625,9.802338600158691,0.29005658626556396,0.020129140466451645
1659026346642049500,0.680049560546875,9.802306175231934,0.2912510931491852,0.0187735166400671
1659026346651719700,0.6897197265625,9.802253723144531,0.2931802272796631,0.015946991741657257
1659026346661390000,0.69939013671875,9.802192687988281,0.2953537404537201,0.01300086546689272
1659026346671060500,0.709060546875,9.80214786529541,0.2969476580619812,0.010127441957592964
1659026346680731000,0.71873095703125,9.802063941955566,0.29982489347457886,0.005613620858639479
1659026346690401000,0.728401123046875,9.801953315734863,0.3034422993659973,0.000566856237128377
1659026346700071400,0.738071533203125,9.801865577697754,0.30628201365470886,-0.002752781379967928
1659026346709741800,0.747741943359375,9.801835060119629,0.3072338402271271,-0.003641897812485695
1659026346719412200,0.757412109375,9.801841735839844,0.3070320785045624,-0.0029113241471350193
1659026346729082600,0.76708251953125,9.801931381225586,0.3041613698005676,0.0013050043489784002
1659026346738752800,0.776752685546875,9.801989555358887,0.30224326252937317,0.003833265043795109
1659026346748423200,0.786423095703125,9.801989555358887,0.3022439479827881,0.0036245270166546106
1659026346758093600,0.796093505859375,9.801993370056152,0.30217912793159485,0.003877983894199133
1659026346767764000,0.805763916015625,9.80197525024414,0.3027605712413788,0.0032687890343368053
1659026346777434400,0.815434326171875,9.80195140838623,0.3035460412502289,0.002869692863896489
1659026346787104800,0.825104736328125,9.801989555358887,0.302265465259552,0.004284397698938847
1659026346796775000,0.83477490234375,9.802010536193848,0.3015601933002472,0.0051599969156086445
1659026346806445300,0.8444453125,9.80203628540039,0.3007183372974396,0.0065762256272137165
1659026346816115700,0.85411572265625,9.802046775817871,0.300317645072937,0.008012066595256329
1659026346825786000,0.8637861328125,9.802103042602539,0.2984319031238556,0.009811339899897575
1659026346835456500,0.87345654296875,9.802099227905273,0.29856041073799133,0.009881962090730667
1659026346845126700,0.883126708984375,9.802037239074707,0.30069562792778015,0.007672570180147886
1659026346854797000,0.892797119140625,9.801980972290039,0.3025577962398529,0.005450830329209566
1659026346864467500,0.902467529296875,9.801980972290039,0.30251768231391907,0.0051941042765975
1659026346874137900,0.912137939453125,9.80197811126709,0.3026108145713806,0.004808892961591482
1659026346883808300,0.921808349609375,9.801985740661621,0.30239295959472656,0.005021215882152319
1659026346893478400,0.931478515625,9.801993370056152,0.30210867524147034,0.0055041504092514515
1659026346903148800,0.941148681640625,9.802020072937012,0.3012339472770691,0.0063452948816120625
1659026346912819200,0.950819091796875,9.802040100097656,0.30057260394096375,0.007431878708302975
1659026346922489600,0.960489501953125,9.802037239074707,0.30067968368530273,0.00813018623739481
1659026346932160000,0.970159912109375,9.802023887634277,0.3011137545108795,0.007733454462140799
1659026346941830100,0.979830078125,9.801968574523926,0.30291709303855896,0.005308420863002539
1659026346951500500,0.98950048828125,9.801864624023438,0.3063395321369171,0.0007582100224681199
1659026346961171000,0.9991708984375,9.80174732208252,0.3100264370441437,-0.003915171604603529
1659026346970841300,1.00884130859375,9.801640510559082,0.3132939636707306,-0.008321852423250675
1659026346980511700,1.01851171875,9.80162525177002,0.3137493133544922,-0.009289843961596489
1659026346990182100,1.02818212890625,9.801703453063965,0.3113529682159424,-0.0070435116067528725
1659026346999852300,1.037852294921875,9.801806449890137,0.30819788575172424,-0.003059206996113062
1659026347009522700,1.047522705078125,9.801909446716309,0.30486008524894714,0.0011917458614334464
1659026347019193000,1.057193115234375,9.802023887634277,0.30114293098449707,0.005684136413037777
1659026347028863500,1.066863525390625,9.802057266235352,0.29998108744621277,0.007642362732440233
1659026347038534000,1.076533935546875,9.802058219909668,0.2999736964702606,0.00773766590282321
1659026347048204000,1.0862041015625,9.802043914794922,0.30046164989471436,0.006857437547296286
1659026347057874400,1.09587451171875,9.802029609680176,0.3009658753871918,0.006214742083102465
1659026347067544800,1.105544921875,9.802027702331543,0.3010169565677643,0.0060216523706912994
1659026347077215200,1.11521533203125,9.80203628540039,0.30074384808540344,0.006502432748675346
1659026347086885400,1.124885498046875,9.802046775817871,0.3003345727920532,0.007324626669287682
1659026347096555800,1.1345556640625,9.802053451538086,0.3000833988189697,0.00775331724435091
1659026347106226200,1.14422607421875,9.802046775817871,0.30034637451171875,0.00757149513810873
1659026347115896600,1.153896484375,9.802030563354492,0.3009072244167328,0.006555476225912571
1659026347125567000,1.16356689453125,9.80201530456543,0.30141088366508484,0.00537619786337018
1659026347135237000,1.173237060546875,9.80200481414795,0.3018055856227875,0.00413113459944725
1659026347144907800,1.18290771484375,9.801998138427734,0.3020063638687134,0.0036804028786718845
1659026347154578000,1.192577880859375,9.801992416381836,0.302200585603714,0.0034722082782536745
1659026347164248300,1.202248291015625,9.801996231079102,0.30208250880241394,0.003804862732067704
1659026347173918700,1.211918701171875,9.802007675170898,0.3017072081565857,0.004062356427311897
1659026347183589000,1.221589111328125,9.802017211914062,0.3013615310192108,0.0047043440863490105
1659026347193259300,1.23125927734375,9.802029609680176,0.3009495735168457,0.004750803578644991
1659026347202929700,1.2409296875,9.802034378051758,0.3008172810077667,0.004432233050465584
1659026347212600000,1.25060009765625,9.802033424377441,0.3008604049682617,0.004118067212402821
1659026347222270500,1.2602705078125,9.802019119262695,0.3012947738170624,0.0037075099535286427
1659026347231940900,1.26994091796875,9.802018165588379,0.30137643218040466,0.0037506003864109516
1659026347241611000,1.279611083984375,9.802032470703125,0.30087098479270935,0.004679381847381592
1659026347251281400,1.289281494140625,9.80205249786377,0.3001807630062103,0.00576016353443265
1659026347260951800,1.298951904296875,9.802068710327148,0.29968106746673584,0.006855885032564402
1659026347270622200,1.308622314453125,9.802062034606934,0.2998599708080292,0.007275409996509552
1659026347280292600,1.318292724609375,9.802048683166504,0.3003166615962982,0.006676225923001766
1659026347289962800,1.327962646484375,9.802024841308594,0.30112412571907043,0.005571567919105291
1659026347299633400,1.33763330078125,9.80201530456543,0.30144810676574707,0.0048333569429814816
1659026347309303600,1.347303466796875,9.802010536193848,0.3016241490840912,0.004254489671438932
1659026347318974000,1.356973876953125,9.80201530456543,0.3014674186706543,0.0038766602519899607
1659026347328644400,1.366644287109375,9.802013397216797,0.301535040140152,0.003697793697938323
1659026347338314800,1.376314697265625,9.802019119262695,0.3013140857219696,0.0035199117846786976
1659026347347985000,1.38598486328125,9.802027702331543,0.3010741174221039,0.003574889386072755
1659026347357655300,1.3956552734375,9.802044868469238,0.30046364665031433,0.0038222954608500004
1659026347367325700,1.40532568359375,9.80206298828125,0.2999105751514435,0.004613989964127541
1659026347376996000,1.41499609375,9.802077293395996,0.2994159758090973,0.005694032646715641
1659026347386666500,1.42466650390625,9.802078247070312,0.29938068985939026,0.006096172612160444
1659026347396336600,1.434336669921875,9.802067756652832,0.29971346259117126,0.0056371851824223995
1659026347406007000,1.444007080078125,9.80205249786377,0.30019906163215637,0.004944177810102701
1659026347415677400,1.453677490234375,9.802043914794922,0.3005264699459076,0.004888244904577732
1659026347425347800,1.463347900390625,9.802047729492188,0.30036017298698425,0.00507977744564414
1659026347435018200,1.473018310546875,9.802057266235352,0.30003127455711365,0.005452992860227823
1659026347444688400,1.4826884765625,9.80206298828125,0.29983457922935486,0.005921853706240654
1659026347454358800,1.49235888671875,9.802069664001465,0.29961249232292175,0.006398528814315796
1659026347464029200,1.502029296875,9.802068710327148,0.29964199662208557,0.006696182768791914
1659026347473699600,1.511699462890625,9.80207347869873,0.2994924783706665,0.00708388164639473
1659026347483369700,1.52136962890625,9.802072525024414,0.2995111644268036,0.007331313099712133
1659026347493040400,1.531040283203125,9.802071571350098,0.29955729842185974,0.007256715092808008
1659026347502710500,1.54071044921875,9.802070617675781,0.29958465695381165,0.0071700322441756725
1659026347512381000,1.550380859375,9.8020658493042,0.29975274205207825,0.0071073248982429504
1659026347522051300,1.56005126953125,9.8020601272583,0.2999338209629059,0.007005726918578148
1659026347531721700,1.5697216796875,9.80205249786377,0.3001927137374878,0.006751749664545059
1659026347541392100,1.57939208984375,9.802047729492188,0.30033624172210693,0.006865208502858877
1659026347551062300,1.589062255859375,9.80205249786377,0.30019405484199524,0.00683613820001483
1659026347560732700,1.598732666015625,9.802059173583984,0.29994678497314453,0.006724402774125338
1659026347570403000,1.608403076171875,9.802059173583984,0.2999718189239502,0.006684959400445223
1659026347580073500,1.618073486328125,9.802053451538086,0.3001410663127899,0.006638950668275356
1659026347589743600,1.62774365234375,9.80205249786377,0.3001727759838104,0.006524383090436459
1659026347599414000,1.6374140625,9.802048683166504,0.3003067076206207,0.006349880248308182
1659026347609084400,1.64708447265625,9.802042007446289,0.30053743720054626,0.006184983067214489
1659026347618754800,1.6567548828125,9.802041053771973,0.3005729019641876,0.006126382388174534
1659026347628425200,1.66642529296875,9.802032470703125,0.3008178770542145,0.005969282239675522
1659026347638095400,1.676095458984375,9.802024841308594,0.3010961711406708,0.005891808308660984
1659026347647766000,1.68576611328125,9.80202865600586,0.30097469687461853,0.005916034337133169
1659026347657436200,1.695436279296875,9.802029609680176,0.3009534180164337,0.005938423331826925
1659026347667106600,1.7051064453125,9.802029609680176,0.3009532392024994,0.00635840417817235
1659026347676777000,1.71477685546875,9.802034378051758,0.3007637858390808,0.007094033062458038
1659026347686447400,1.724447265625,9.802047729492188,0.3002927005290985,0.00894610770046711
1659026347696117500,1.734117431640625,9.802083015441895,0.2990160286426544,0.012185148894786835
1659026347705788000,1.743787841796875,9.802098274230957,0.29840216040611267,0.01494378037750721
1659026347715458300,1.753458251953125,9.802125930786133,0.2972889542579651,0.018050793558359146
1659026347725128700,1.763128662109375,9.802116394042969,0.2974831461906433,0.01989625208079815
1659026347734799000,1.772799072265625,9.801980972290039,0.30215203762054443,0.0161278136074543
1659026347744469200,1.78246923828125,9.801688194274902,0.3118448853492737,0.006597102154046297
1659026347754139600,1.7921396484375,9.801471710205078,0.31866610050201416,0.0010492538567632437
1659026347763810000,1.80181005859375,9.801454544067383,0.3191682696342468,0.002595774829387665
1659026347773480400,1.81148046875,9.801498413085938,0.31773415207862854,0.007713453844189644
1659026347783150800,1.82115087890625,9.801443099975586,0.3193177282810211,0.012196894735097885
1659026347792821000,1.830821044921875,9.8013334274292,0.3223048150539398,0.01917659305036068
1659026347802491400,1.840491455078125,9.801262855529785,0.3237844407558441,0.028299985453486443
1659026347812161800,1.850161865234375,9.801284790039062,0.32228976488113403,0.03648629039525986
1659026347821832200,1.859832275390625,9.801212310791016,0.32455170154571533,0.03593529388308525
1659026347831502600,1.869502685546875,9.801058769226074,0.3301442563533783,0.02555602416396141
1659026347841173000,1.879173095703125,9.801091194152832,0.32961976528167725,0.01879238151013851
1659026347850843100,1.888843017578125,9.801301956176758,0.3231554627418518,0.020934313535690308
1659026347860513500,1.898513427734375,9.801543235778809,0.3148778975009918,0.031560465693473816
1659026347870184000,1.908183837890625,9.801692008972168,0.30841752886772156,0.04575662314891815
1659026347879854300,1.917854248046875,9.801711082458496,0.30537158250808716,0.059928566217422485
1659026347889524700,1.927524658203125,9.801640510559082,0.3050863742828369,0.0718068853020668
1659026347899195000,1.93719482421875,9.80159854888916,0.304249107837677,0.08041402697563171
1659026347908865300,1.946865234375,9.801568984985352,0.3037419021129608,0.08587214350700378
1659026347918535700,1.95653564453125,9.801568031311035,0.302176833152771,0.09131960570812225
1659026347928206000,1.9662060546875,9.801640510559082,0.29598307609558105,0.10310843586921692
1659026347937876500,1.97587646484375,9.80170726776123,0.2864706218242645,0.12191051244735718
1659026347947546600,1.985546630859375,9.801777839660645,0.27827703952789307,0.13457810878753662
1659026347957217000,1.995217041015625,9.801716804504395,0.27636390924453735,0.14267803728580475
1659026347966887400,2.004887451171875,9.801671981811523,0.2748243808746338,0.1486286073923111
1659026347976557800,2.014557861328125,9.801591873168945,0.2736396789550781,0.15587960183620453
1659026347986228000,2.02422802734375,9.801496505737305,0.26992473006248474,0.16790714859962463
1659026347995898400,2.0338984375,9.801362037658691,0.2670322060585022,0.17998939752578735
1659026348005568800,2.04356884765625,9.801162719726562,0.2671785354614258,0.19033275544643402
1659026348015239200,2.0532392578125,9.800946235656738,0.26794683933258057,0.20010176301002502
1659026348024909600,2.06290966796875,9.800514221191406,0.2609905004501343,0.22846998274326324
1659026348034580000,2.072580078125,9.799432754516602,0.25748977065086365,0.27425694465637207
1659026348044250400,2.08225048828125,9.79747486114502,0.2550591826438904,0.3388589918613434
1659026348053920500,2.09192041015625,9.794411659240723,0.2486162930727005,0.42199021577835083
1659026348063591000,2.1015908203125,9.789824485778809,0.23360656201839447,0.5245562195777893
1659026348073261300,2.11126123046875,9.783034324645996,0.21219292283058167,0.6462205648422241
1659026348082931700,2.120931640625,9.773897171020508,0.18910223245620728,0.7781734466552734
1659026348092601900,2.130601806640625,9.763444900512695,0.16778255999088287,0.9040960073471069
1659026348102272300,2.140272216796875,9.752778053283691,0.15491929650306702,1.0147470235824585
1659026348111942700,2.149942626953125,9.742321968078613,0.1553535759449005,1.1105931997299194
1659026348121613000,2.159613037109375,9.732800483703613,0.15572987496852875,1.1911042928695679
1659026348131283500,2.169283447265625,9.723766326904297,0.1574500948190689,1.262527346611023
1659026348140953600,2.17895361328125,9.715402603149414,0.15793408453464508,1.3252893686294556
1659026348150624000,2.1886240234375,9.707741737365723,0.1568494290113449,1.3804082870483398
1659026348160294400,2.19829443359375,9.700706481933594,0.15682905912399292,1.429010033607483
1659026348169964800,2.20796484375,9.69563102722168,0.16027849912643433,1.4626801013946533
1659026348179635200,2.21763525390625,9.68997859954834,0.1602480709552765,1.4996764659881592
1659026348189305600,2.2273056640625,9.682768821716309,0.14905735850334167,1.546658992767334
1659026348198976000,2.23697607421875,9.676643371582031,0.13616222143173218,1.5856965780258179
1659026348208646100,2.246646240234375,9.673129081726074,0.12083331495523453,1.6082173585891724
1659026348218316500,2.256316650390625,9.665138244628906,0.10279928147792816,1.6567820310592651
1659026348227987000,2.265987060546875,9.652694702148438,0.07361714541912079,1.729293704032898
1659026348237657300,2.2756572265625,9.642372131347656,0.04941372200846672,1.7867850065231323
1659026348247327500,2.285327392578125,9.636079788208008,0.03849989175796509,1.8206794261932373
1659026348256998000,2.294997802734375,9.63399887084961,0.04167255014181137,1.831589698791504
1659026348266668300,2.304668212890625,9.63603687286377,0.056709643453359604,1.8204312324523926
1659026348276338700,2.314338623046875,9.640129089355469,0.07626613229513168,1.797912836074829
1659026348286009000,2.324009033203125,9.647177696228027,0.1010693833231926,1.7584413290023804
1659026348295679200,2.33367919921875,9.657962799072266,0.13256840407848358,1.696042776107788
1659026348305349600,2.343349609375,9.669400215148926,0.16911232471466064,1.6261886358261108
1659026348315020000,2.35302001953125,9.68297004699707,0.21155835688114166,1.5380877256393433
1659026348324690400,2.3626904296875,9.698116302490234,0.25759533047676086,1.4319868087768555
1659026348334360800,2.37236083984375,9.715231895446777,0.30544599890708923,1.3005222082138062
1659026348344031000,2.382031005859375,9.731720924377441,0.34667959809303284,1.1592237949371338
1659026348353701400,2.391701416015625,9.746487617492676,0.3785802125930786,1.0163841247558594
1659026348363371800,2.401371826171875,9.759638786315918,0.40422603487968445,0.8697375059127808
1659026348373042200,2.411042236328125,9.770426750183105,0.42914628982543945,0.724544107913971
1659026348382712600,2.420712646484375,9.775493621826172,0.447677880525589,0.6400761604309082
1659026348392383000,2.430383056640625,9.777997016906738,0.4620131552219391,0.5896634459495544
1659026348402053000,2.44005322265625,9.780608177185059,0.4788992404937744,0.5298489332199097
1659026348411723500,2.4497236328125,9.783424377441406,0.5072222352027893,0.4446744918823242
1659026348421394000,2.459393798828125,9.78525161743164,0.5516880750656128,0.3389323651790619
1659026348431064300,2.469064208984375,9.785321235656738,0.6078136563301086,0.22008921205997467
1659026348440734700,2.478734619140625,9.783106803894043,0.6712679266929626,0.10299960523843765
1659026348450404900,2.48840478515625,9.778741836547852,0.7392623424530029,-0.009343980811536312
1659026348460075300,2.4980751953125,9.772927284240723,0.8047884702682495,-0.11224459856748581
1659026348469745700,2.50774560546875,9.766990661621094,0.8580354452133179,-0.2001514434814453
1659026348479416000,2.517416015625,9.761136054992676,0.8980903029441833,-0.2899104058742523
1659026348489086500,2.52708642578125,9.755660057067871,0.9240283370018005,-0.3790076971054077
1659026348498756600,2.536756591796875,9.751099586486816,0.9334509372711182,-0.46382731199264526
1659026348508427000,2.546427001953125,9.74750804901123,0.9264506101608276,-0.5460391044616699
1659026348518097400,2.556097412109375,9.744685173034668,0.9038944840431213,-0.6280696392059326
1659026348527767800,2.565767822265625,9.74224853515625,0.868412971496582,-0.7105239033699036
1659026348537438200,2.575438232421875,9.740172386169434,0.8247362375259399,-0.7869296669960022
1659026348547108600,2.585108642578125,9.741734504699707,0.7669943571090698,-0.8250640034675598
1659026348556778800,2.59477880859375,9.748040199279785,0.6993408799171448,-0.8105656504631042
1659026348566449200,2.60444921875,9.755528450012207,0.6386792063713074,-0.7695050835609436
1659026348576119600,2.61411962890625,9.763007164001465,0.5890806913375854,-0.712087094783783
1659026348585790000,2.6237900390625,9.770026206970215,0.5519682765007019,-0.6421099901199341
1659026348595460400,2.63346044921875,9.775872230529785,0.5275071859359741,-0.5695976614952087
1659026348605130500,2.643130615234375,9.780274391174316,0.5092936158180237,-0.5071910619735718
1659026348614801000,2.65280078125,9.783576011657715,0.4902579188346863,-0.46007204055786133
1659026348624471300,2.66247119140625,9.786459922790527,0.468147337436676,-0.4200383126735687
1659026348634141700,2.6721416015625,9.789447784423828,0.44481948018074036,-0.3731541633605957
1659026348643810600,2.681810546875,9.792280197143555,0.42418622970581055,-0.3188970386981964
1659026348653480700,2.691480712890625,9.79444694519043,0.4093889892101288,-0.2675618529319763
1659026348663151000,2.701151123046875,9.795863151550293,0.401710569858551,-0.22379660606384277
1659026348672821500,2.710821533203125,9.796547889709473,0.4016081690788269,-0.1917114555835724
1659026348682492000,2.720491943359375,9.796375274658203,0.4102422595024109,-0.18197064101696014
1659026348692162000,2.730162109375,9.79541015625,0.4236602485179901,-0.2020740509033203
1659026348701832700,2.739832763671875,9.793549537658691,0.44166430830955505,-0.2483968883752823
1659026348711502800,2.7495029296875,9.79088306427002,0.46174463629722595,-0.30948325991630554
1659026348721173200,2.75917333984375,9.788304328918457,0.4774015247821808,-0.36272019147872925
1659026348730843600,2.76884375,9.787185668945312,0.4832881987094879,-0.3844693601131439
1659026348740514000,2.77851416015625,9.788309097290039,0.4772830307483673,-0.36276280879974365
1659026348750184400,2.788184326171875,9.790909767150879,0.4604247510433197,-0.3105960488319397
1659026348759854600,2.7978544921875,9.79411792755127,0.43166816234588623,-0.24346762895584106
1659026348769525000,2.80752490234375,9.796778678894043,0.3975183069705963,-0.18836241960525513
1659026348779195400,2.8171953125,9.798784255981445,0.36381423473358154,-0.14788323640823364
1659026348788865800,2.82686572265625,9.800455093383789,0.33312150835990906,-0.10251830518245697
1659026348798536000,2.836535888671875,9.801715850830078,0.3087233603000641,-0.038161102682352066
1659026348808206300,2.846206298828125,9.802218437194824,0.289618581533432,0.05499996617436409
1659026348817876700,2.855876708984375,9.801349639892578,0.2693746089935303,0.17709670960903168
1659026348827547100,2.865547119140625,9.798396110534668,0.2447110414505005,0.3192954361438751
1659026348837217500,2.875217529296875,9.792959213256836,0.2133830338716507,0.47202640771865845
1659026348846887700,2.8848876953125,9.784773826599121,0.17512564361095428,0.6308021545410156
1659026348856558300,2.894558349609375,9.773560523986816,0.13106197118759155,0.7941845059394836
1659026348866228500,2.904228515625,9.760132789611816,0.08316599577665329,0.9504114985466003
1659026348875899000,2.91389892578125,9.745186805725098,0.03396473452448845,1.0957050323486328
1659026348885569300,2.9235693359375,9.727620124816895,-0.015262529253959656,1.2424025535583496
1659026348895239700,2.93323974609375,9.707625389099121,-0.06561984866857529,1.388552188873291
1659026348904910000,2.94291015625,9.68449878692627,-0.11786416918039322,1.5385057926177979
1659026348914580200,2.952580322265625,9.658587455749512,-0.1715463250875473,1.6889793872833252
1659026348924250600,2.962250732421875,9.630295753479004,-0.2244269698858261,1.8377790451049805
1659026348933921000,2.971921142578125,9.598735809326172,-0.27233201265335083,1.9901001453399658
1659026348943591400,2.98159130859375,9.564342498779297,-0.3121010661125183,2.143903970718384
1659026348953261600,2.991261474609375,9.532731056213379,-0.3423214256763458,2.2760136127471924
1659026348962932000,3.000931884765625,9.5099458694458,-0.36437007784843445,2.3661251068115234
1659026348972602400,3.010602294921875,9.500709533691406,-0.3809848725795746,2.4003663063049316
1659026348982272800,3.020272705078125,9.504213333129883,-0.3954254984855652,2.384106397628784
1659026348991943200,3.029943115234375,9.514650344848633,-0.41319647431373596,2.3390374183654785
1659026349001613300,3.03961328125,9.525731086730957,-0.43868130445480347,2.288757562637329
1659026349011283700,3.04928369140625,9.533413887023926,-0.4709254503250122,2.2500319480895996
1659026349020954000,3.0589541015625,9.536574363708496,-0.5037370324134827,2.2294349670410156
1659026349030624500,3.06862451171875,9.537120819091797,-0.5359096527099609,2.2195756435394287
1659026349040295000,3.078294921875,9.538347244262695,-0.5657641291618347,2.2068583965301514
1659026349049965300,3.08796533203125,9.541829109191895,-0.5895662307739258,2.1854753494262695
1659026349059635700,3.0976357421875,9.548150062561035,-0.6035555601119995,2.153817653656006
1659026349069305900,3.107305908203125,9.556487083435059,-0.6097444891929626,2.1147468090057373
1659026349078976300,3.116976318359375,9.56356143951416,-0.6098333597183228,2.0824949741363525
1659026349088646700,3.126646728515625,9.566376686096191,-0.6032352447509766,2.071453094482422
1659026349098317000,3.136317138671875,9.563003540039062,-0.5898772478103638,2.0907886028289795
1659026349107987500,3.145987548828125,9.553421974182129,-0.5701277852058411,2.1395022869110107
1659026349117657600,3.15565771484375,9.53976821899414,-0.5467856526374817,2.2055017948150635
1659026349127328000,3.165327880859375,9.525423049926758,-0.521213710308075,2.2726733684539795
1659026349136998400,3.174998291015625,9.514510154724121,-0.49524566531181335,2.323622226715088
1659026349146668800,3.184668701171875,9.511275291442871,-0.4716377258300781,2.341705322265625
1659026349156339000,3.1943388671875,9.517231941223145,-0.45012763142585754,2.3216495513916016
1659026349166009300,3.20400927734375,9.53074836730957,-0.4286326766014099,2.2696926593780518
1659026349175679700,3.2136796875,9.54929256439209,-0.40477854013442993,2.194891929626465
1659026349185350100,3.22335009765625,9.570343971252441,-0.37743791937828064,2.1062839031219482
1659026349195020500,3.2330205078125,9.591123580932617,-0.3458816707134247,2.015216588973999
1659026349204691000,3.24269091796875,9.609321594238281,-0.3087552487850189,1.9328739643096924
1659026349214361300,3.252361328125,9.623430252075195,-0.26574966311454773,1.8679826259613037
1659026349224031500,3.262031494140625,9.633330345153809,-0.21661102771759033,1.8227494955062866
1659026349233702000,3.271701904296875,9.640229225158691,-0.16007545590400696,1.791855812072754
1659026349243372300,3.281372314453125,9.64590072631836,-0.0946037694811821,1.7657948732376099
1659026349253042700,3.291042724609375,9.652355194091797,-0.020965013653039932,1.7326197624206543
1659026349262713000,3.300713134765625,9.660965919494629,0.05667804554104805,1.683127522468567
1659026349272383200,3.31038330078125,9.671028137207031,0.13321302831172943,1.6198313236236572
1659026349282053600,3.3200537109375,9.680747032165527,0.2038268744945526,1.553052306175232
1659026349291724000,3.32972412109375,9.689190864562988,0.2642449140548706,1.4900152683258057
1659026349301394400,3.33939453125,9.696097373962402,0.31212925910949707,1.434804916381836
1659026349311064800,3.34906494140625,9.701753616333008,0.34845593571662903,1.3874260187149048
1659026349320735000,3.35873486328125,9.706686019897461,0.37510359287261963,1.3453339338302612
1659026349330405400,3.3684052734375,9.711363792419434,0.3929125964641571,1.3059200048446655
1659026349340075800,3.37807568359375,9.71591567993164,0.40240612626075745,1.2686402797698975
1659026349349746200,3.38774609375,9.720357894897461,0.40634846687316895,1.2328463792800903
1659026349359416300,3.397416259765625,9.725078582763672,0.40715038776397705,1.1947600841522217
1659026349369087000,3.4070869140625,9.729997634887695,0.4078526198863983,1.1537655591964722
1659026349378757000,3.416757080078125,9.734525680541992,0.41154298186302185,1.1135647296905518
1659026349388427500,3.426427490234375,9.737764358520508,0.4224972426891327,1.0806634426116943
1659026349398098000,3.436097900390625,9.73903751373291,0.44213584065437317,1.0611572265625
1659026349407768300,3.445768310546875,9.737683296203613,0.47008010745048523,1.0615694522857666
1659026349417438700,3.455438720703125,9.73367977142334,0.5049404501914978,1.082082748413086
1659026349427108900,3.46510888671875,9.727964401245117,0.5422305464744568,1.1149405241012573
1659026349436779300,3.474779296875,9.721923828125,0.5772777795791626,1.1494859457015991
1659026349446449700,3.48444970703125,9.716548919677734,0.6064971685409546,1.1795008182525635
1659026349456120000,3.4941201171875,9.712660789489746,0.6289527416229248,1.1995962858200073
1659026349465790500,3.50379052734375,9.710542678833008,0.6467987895011902,1.207230806350708
1659026349475460600,3.513460693359375,9.709708213806152,0.6630384922027588,1.2051249742507935
1659026349485131000,3.523131103515625,9.70909595489502,0.6802815198898315,1.2004426717758179
1659026349494801400,3.532801513671875,9.707921981811523,0.6982846260070801,1.1996017694473267
1659026349504471800,3.542471923828125,9.705724716186523,0.715499758720398,1.207207202911377
1659026349514142000,3.552141845703125,9.702446937561035,0.7313202023506165,1.223955750465393
1659026349523812600,3.5618125,9.698456764221191,0.7462287545204163,1.2463783025741577
1659026349533482800,3.571482666015625,9.694534301757812,0.760813295841217,1.2678987979888916
1659026349543153200,3.581153076171875,9.691588401794434,0.7784444093704224,1.2796494960784912
1659026349552823600,3.590823486328125,9.689937591552734,0.802729070186615,1.2771490812301636
1659026349562494000,3.600493896484375,9.689390182495117,0.8335734009742737,1.2614588737487793
1659026349572164400,3.610164306640625,9.689571380615234,0.8703364729881287,1.2349549531936646
1659026349581834500,3.61983447265625,9.689576148986816,0.9128188490867615,1.2038527727127075
1659026349591505000,3.6295048828125,9.688340187072754,0.9575944542884827,1.1787614822387695
1659026349601175300,3.63917529296875,9.686348915100098,1.0016515254974365,1.1583306789398193
1659026349610845700,3.648845703125,9.683801651000977,1.0418041944503784,1.1441301107406616
1659026349620516000,3.65851611328125,9.68065071105957,1.0744352340698242,1.140605092048645
1659026349630186200,3.668186279296875,9.677268981933594,1.0967934131622314,1.148002028465271
1659026349639856600,3.677856689453125,9.674760818481445,1.1064181327819824,1.1598325967788696
1659026349649527000,3.687527099609375,9.67377758026123,1.105186939239502,1.1691769361495972
1659026349659197400,3.697197509765625,9.674348831176758,1.0976511240005493,1.1715469360351562
1659026349668867800,3.706867919921875,9.676080703735352,1.0887559652328491,1.1655263900756836
1659026349678538000,3.7165380859375,9.677620887756348,1.0850353240966797,1.1561720371246338
1659026349688208400,3.72620849609375,9.67772102355957,1.0920391082763672,1.1487126350402832
1659026349697878800,3.735878662109375,9.675958633422852,1.111602544784546,1.1447843313217163
1659026349707549200,3.745549072265625,9.672542572021484,1.1401854753494263,1.1455473899841309
1659026349717219600,3.755219482421875,9.667760848999023,1.1733689308166504,1.1523854732513428
1659026349726890000,3.764889892578125,9.661584854125977,1.207751989364624,1.1685478687286377
1659026349736560000,3.77456005859375,9.654350280761719,1.2392692565917969,1.1950327157974243
1659026349746230500,3.78423046875,9.647238731384277,1.263574242591858,1.226600170135498
1659026349755901000,3.79390087890625,9.641091346740723,1.2794541120529175,1.258070468902588
1659026349765571300,3.8035712890625,9.636530876159668,1.287675142288208,1.2843503952026367
1659026349775241700,3.81324169921875,9.634310722351074,1.2926278114318848,1.2959723472595215
1659026349784912000,3.822911865234375,9.6346435546875,1.3008774518966675,1.2852070331573486
1659026349794582300,3.832582275390625,9.636849403381348,1.316590428352356,1.252245545387268
1659026349804252700,3.842252685546875,9.64013385772705,1.3402906656265259,1.2007570266723633
1659026349813923000,3.851923095703125,9.644094467163086,1.3690017461776733,1.1347519159317017
1659026349823593500,3.861593505859375,9.648141860961914,1.39832603931427,1.0622724294662476
1659026349833263600,3.871263671875,9.65189266204834,1.424800157546997,0.9906123280525208
1659026349842934300,3.880934326171875,9.655192375183105,1.4486799240112305,0.9214009046554565
1659026349852604400,3.8906044921875,9.657618522644043,1.4735625982284546,0.8540521860122681
1659026349862274800,3.90027490234375,9.65885066986084,1.504315972328186,0.7835883498191833
1659026349871945200,3.9099453125,9.659013748168945,1.5407211780548096,0.7071337699890137
1659026349881615600,3.91961572265625,9.658263206481934,1.5789927244186401,0.6285843849182129
1659026349891285800,3.92928564453125,9.657687187194824,1.6106804609298706,0.5524417161941528
1659026349900956200,3.9389560546875,9.659255981445312,1.6262928247451782,0.47362712025642395
1659026349910626600,3.94862646484375,9.664974212646484,1.6161818504333496,0.3829204738140106
1659026349920297000,3.958296875,9.673980712890625,1.5817736387252808,0.28718727827072144
1659026349929967400,3.96796728515625,9.683767318725586,1.5349563360214233,0.19732999801635742
1659026349939637500,3.977637451171875,9.692253112792969,1.4895894527435303,0.10834019631147385
1659026349949308000,3.987307861328125,9.697343826293945,1.460026741027832,0.01570112258195877
1659026349958978300,3.996978271484375,9.697970390319824,1.4542726278305054,-0.06979082524776459
1659026349968648700,4.006648681640625,9.695676803588867,1.4637030363082886,-0.147707998752594
1659026349978319000,4.016319091796875,9.691803932189941,1.4779354333877563,-0.23459888994693756
1659026349987989200,4.0259892578125,9.687417984008789,1.487377643585205,-0.334689736366272
1659026349997660000,4.035659912109375,9.683539390563965,1.4857537746429443,-0.4381529688835144
1659026350007330000,4.045330078125,9.680611610412598,1.4742298126220703,-0.5317772626876831
1659026350017000400,4.05500048828125,9.67743968963623,1.465072751045227,-0.6091747283935547
1659026350026670800,4.0646708984375,9.673644065856934,1.459235668182373,-0.679446280002594
1659026350036341200,4.07434130859375,9.668807983398438,1.4491636753082275,-0.7645078301429749
1659026350046011600,4.08401171875,9.662632942199707,1.4327377080917358,-0.8667116165161133
1659026350055681800,4.093681884765625,9.655941009521484,1.4066027402877808,-0.9770591259002686
1659026350065352200,4.103352294921875,9.649505615234375,1.3677518367767334,-1.0893559455871582
1659026350075022600,4.113022705078125,9.643316268920898,1.3207825422286987,-1.1968226432800293
1659026350084693000,4.12269287109375,9.636664390563965,1.2742140293121338,-1.2967137098312378
1659026350094363400,4.13236328125,9.62904167175293,1.2357784509658813,-1.3873701095581055
1659026350104033500,4.142033447265625,9.620894432067871,1.2135217189788818,-1.4615517854690552
1659026350113704000,4.151703857421875,9.613255500793457,1.2080953121185303,-1.5153220891952515
1659026350123374300,4.161374267578125,9.607457160949707,1.2150543928146362,-1.5462254285812378
1659026350133044700,4.171044677734375,9.604373931884766,1.2269442081451416,-1.5559536218643188
1659026350142715000,4.18071484375,9.604409217834473,1.2355704307556152,-1.548897385597229
1659026350152385300,4.19038525390625,9.608220100402832,1.2329957485198975,-1.5271605253219604
1659026350162055700,4.2000556640625,9.614667892456055,1.2199532985687256,-1.4967495203018188
1659026350171726000,4.20972607421875,9.621889114379883,1.206924319267273,-1.4604690074920654
1659026350181396500,4.219396484375,9.628316879272461,1.1999380588531494,-1.423391342163086
1659026350191067000,4.22906689453125,9.634292602539062,1.193306803703308,-1.388094186782837
1659026350200737300,4.2387373046875,9.64106273651123,1.181206464767456,-1.3509429693222046
1659026350210407400,4.248407470703125,9.650598526000977,1.1597367525100708,-1.3005231618881226
1659026350220077800,4.258077880859375,9.664063453674316,1.1246955394744873,-1.2293596267700195
1659026350229748200,4.267748291015625,9.681343078613281,1.0762627124786377,-1.1329842805862427
1659026350239418600,4.277418701171875,9.701310157775879,1.01947021484375,-1.007796049118042
1659026350249089000,4.287089111328125,9.721209526062012,0.9624492526054382,-0.8614987730979919
1659026350258759200,4.29675927734375,9.738234519958496,0.9129585027694702,-0.7096970677375793
1659026350268429600,4.3064296875,9.751510620117188,0.8771169185638428,-0.555952250957489
1659026350278100000,4.316099853515625,9.760539054870605,0.8595306277275085,-0.40432116389274597
1659026350287770400,4.325770263671875,9.765501022338867,0.8568529486656189,-0.26678529381752014
1659026350297440800,4.335440673828125,9.767424583435059,0.8620899319648743,-0.15683425962924957
1659026350307111000,4.34511083984375,9.767483711242676,0.8714067935943604,-0.08546658605337143
1659026350316781300,4.35478125,9.766813278198242,0.8816118836402893,-0.05006418004631996
1659026350326451700,4.36445166015625,9.765710830688477,0.8943818211555481,-0.037022899836301804
1659026350336122000,4.3741220703125,9.763850212097168,0.9147354960441589,-0.02946353517472744
1659026350345792500,4.38379248046875,9.760863304138184,0.9464155435562134,-0.015237336978316307
1659026350355463000,4.393462890625,9.756566047668457,0.9898340106010437,0.006091414950788021
1659026350365133000,4.403133056640625,9.75109577178955,1.0420082807540894,0.027403293177485466
1659026350374803500,4.412803466796875,9.745015144348145,1.0969592332839966,0.04184136167168617
1659026350384473900,4.422473876953125,9.739266395568848,1.1467074155807495,0.04621507227420807
1659026350394144300,4.432144287109375,9.734472274780273,1.1868009567260742,0.04404369369149208
1659026350403814700,4.441814697265625,9.73095417022705,1.215262532234192,0.04529128968715668
1659026350413484800,4.45148486328125,9.728776931762695,1.2320340871810913,0.058047108352184296
1659026350423155200,4.4611552734375,9.727679252624512,1.2390422821044922,0.08614294975996017
1659026350432825600,4.47082568359375,9.727235794067383,1.2388134002685547,0.12890776991844177
1659026350442496000,4.48049609375,9.727052688598633,1.2341417074203491,0.17814919352531433
1659026350452166400,4.49016650390625,9.726778030395508,1.2276943922042847,0.23007752001285553
1659026350461836500,4.49983642578125,9.726247787475586,1.220395803451538,0.2848203480243683
1659026350471507000,4.5095068359375,9.725447654724121,1.2133278846740723,0.33746281266212463
1659026350481177300,4.51917724609375,9.72421932220459,1.2097347974777222,0.3827272951602936
1659026350490847700,4.52884765625,9.722517967224121,1.211344599723816,0.41914165019989014
1659026350500518100,4.53851806640625,9.72020149230957,1.2187005281448364,0.4503712058067322
1659026350510188500,4.5481884765625,9.717079162597656,1.2311360836029053,0.4827536940574646
1659026350519859000,4.55785888671875,9.713213920593262,1.2468599081039429,0.5188615918159485
1659026350529529000,4.567529052734375,9.709020614624023,1.2630531787872314,0.5567814707756042
1659026350539199500,4.577199462890625,9.70478343963623,1.2773773670196533,0.5965421795845032
1659026350548870000,4.586869873046875,9.700615882873535,1.2880730628967285,0.6397600173950195
1659026350558540300,4.596540283203125,9.696669578552246,1.2944477796554565,0.6851324439048767
1659026350568210700,4.606210693359375,9.693572044372559,1.29684317111969,0.7233643531799316
1659026350577880800,4.615880859375,9.691655158996582,1.2973331212997437,0.7477613091468811
1659026350587551200,4.62555126953125,9.690879821777344,1.300118088722229,0.7529460191726685
1659026350597221600,4.6352216796875,9.691282272338867,1.3062207698822021,0.7370322942733765
1659026350606892000,4.64489208984375,9.692366600036621,1.3163719177246094,0.7039794325828552
1659026350616562200,4.654562255859375,9.693065643310547,1.3321119546890259,0.6635907888412476
1659026350626232600,4.664232666015625,9.69289779663086,1.352317452430725,0.6239756345748901
1659026350635903000,4.673903076171875,9.691998481750488,1.3742403984069824,0.5890709757804871
1659026350645573400,4.683573486328125,9.690670013427734,1.3958591222763062,0.5593394041061401
1659026350655243800,4.693243896484375,9.689260482788086,1.4160897731781006,0.5322616696357727
1659026350664914000,4.702913818359375,9.687946319580078,1.435313105583191,0.5039452314376831
1659026350674584600,4.71258447265625,9.686868667602539,1.4541751146316528,0.4694214463233948
1659026350684254700,4.722254638671875,9.68580436706543,1.474224328994751,0.4269089698791504
1659026350693925000,4.731925048828125,9.684538841247559,1.4953713417053223,0.37940824031829834
1659026350703595500,4.741595458984375,9.68289852142334,1.5170000791549683,0.33252692222595215
1659026350713266000,4.751265869140625,9.680702209472656,1.5395920276641846,0.28989750146865845
1659026350722936300,4.760936279296875,9.678227424621582,1.5624933242797852,0.24682335555553436
1659026350732606500,4.7706064453125,9.675843238830566,1.5841660499572754,0.19714981317520142
1659026350742276900,4.78027685546875,9.673587799072266,1.6038908958435059,0.14006882905960083
1659026350751947300,4.789947265625,9.671497344970703,1.6205525398254395,0.07958313822746277
1659026350761617700,4.79961767578125,9.66971492767334,1.6329551935195923,0.021307803690433502
1659026350771288000,4.8092880859375,9.668245315551758,1.6414892673492432,-0.030497709289193153
1659026350780958200,4.818958251953125,9.666980743408203,1.6474435329437256,-0.07625745981931686
1659026350790628600,4.828628662109375,9.665691375732422,1.6523280143737793,-0.12087284028530121
1659026350800299000,4.838299072265625,9.66419792175293,1.6566828489303589,-0.1705106794834137
1659026350809969400,4.847969482421875,9.662281036376953,1.6607366800308228,-0.22945190966129303
1659026350819639800,4.857639892578125,9.659598350524902,1.6657958030700684,-0.2961168587207794
1659026350829310200,4.867310302734375,9.655760765075684,1.6749188899993896,-0.36235111951828003
1659026350838980400,4.87698046875,9.650784492492676,1.689224362373352,-0.4234100878238678
1659026350848650800,4.886650634765625,9.645241737365723,1.706956148147583,-0.4753885269165039
1659026350858321200,4.896321044921875,9.639472007751465,1.727807879447937,-0.5154155492782593
1659026350867991600,4.905991455078125,9.63387680053711,1.7501792907714844,-0.5437595844268799
1659026350877662000,4.915661865234375,9.628521919250488,1.7726703882217407,-0.565314769744873
1659026350887332000,4.92533203125,9.622735977172852,1.7956849336624146,-0.5906578302383423
1659026350897002500,4.93500244140625,9.615652084350586,1.8209292888641357,-0.6275658011436462
1659026350906673000,4.9446728515625,9.606816291809082,1.8500676155090332,-0.6758100986480713
1659026350916343300,4.95434326171875,9.59648609161377,1.884252905845642,-0.7262462973594666
1659026350926013700,4.964013671875,9.585758209228516,1.920352816581726,-0.7719273567199707
1659026350935683800,4.973683837890625,9.57463264465332,1.9574167728424072,-0.8156638145446777
1659026350945354200,4.983354248046875,9.563971519470215,1.9919884204864502,-0.8560469150543213
1659026350955024600,4.993024658203125,9.555405616760254,2.02085280418396,-0.8836005330085754
1659026350964695000,5.002695068359375,9.548656463623047,2.047130823135376,-0.8959866166114807
1659026350974365400,5.012365478515625,9.542137145996094,2.0743255615234375,-0.9028720855712891
1659026350984035800,5.022035888671875,9.53487491607666,2.1020700931549072,-0.9153468608856201
1659026350993706200,5.031706298828125,9.527128219604492,2.1277244091033936,-0.9364794492721558
1659026351003376400,5.04137646484375,9.519411087036133,2.1503748893737793,-0.9628585577011108
1659026351013046800,5.051046875,9.51187801361084,2.170069694519043,-0.9926494359970093
1659026351022717200,5.06071728515625,9.50379467010498,2.187800884246826,-1.0304367542266846
1659026351032387600,5.0703876953125,9.493020057678223,2.2093441486358643,-1.082475185394287
1659026351042058000,5.08005810546875,9.4783296585083,2.238393783569336,-1.1494574546813965
1659026351051728100,5.08972802734375,9.462769508361816,2.268683433532715,-1.2163254022598267
1659026351061398500,5.0993984375,9.451172828674316,2.289224147796631,-1.2669602632522583
1659026351071069000,5.10906884765625,9.446065902709961,2.294555902481079,-1.295080304145813
1659026351080739300,5.1187392578125,9.448307991027832,2.2823102474212646,-1.3003536462783813
1659026351090409700,5.12840966796875,9.456570625305176,2.2554187774658203,-1.287146806716919
1659026351100079900,5.138079833984375,9.46724796295166,2.2239508628845215,-1.263192892074585
1659026351109750300,5.147750244140625,9.476912498474121,2.1988625526428223,-1.2343084812164307
1659026351119420700,5.157420654296875,9.482696533203125,2.1869497299194336,-1.210829734802246
1659026351129091000,5.167091064453125,9.484631538391113,2.186246156692505,-1.1968623399734497
1659026351138761500,5.176761474609375,9.485124588012695,2.1906237602233887,-1.184890627861023
1659026351148432000,5.186431884765625,9.485884666442871,2.194756031036377,-1.1710835695266724
1659026351158102000,5.19610205078125,9.487422943115234,2.194265604019165,-1.1594747304916382
1659026351167772400,5.2057724609375,9.48966121673584,2.1868226528167725,-1.1552109718322754
1659026351177442800,5.21544287109375,9.490717887878418,2.1730737686157227,-1.1723562479019165
1659026351187113200,5.22511328125,9.488120079040527,2.1538069248199463,-1.2276337146759033
1659026351196783600,5.23478369140625,9.480209350585938,2.130974531173706,-1.3247489929199219
1659026351206453800,5.244453857421875,9.467462539672852,2.107713222503662,-1.447438359260559
1659026351216124200,5.254124267578125,9.452592849731445,2.086390495300293,-1.5703028440475464
1659026351225794600,5.263794677734375,9.437631607055664,2.0686025619506836,-1.679993748664856
1659026351235465000,5.27346484375,9.420720100402832,2.057926893234253,-1.7847583293914795
1659026351245135400,5.28313525390625,9.398307800292969,2.0546867847442627,-1.9027509689331055
1659026351254805500,5.292805419921875,9.368671417236328,2.0550568103790283,-2.0433173179626465
1659026351264476000,5.302475830078125,9.33228874206543,2.05214786529541,-2.206231117248535
1659026351274146300,5.312146240234375,9.293124198913574,2.035618543624878,-2.3800196647644043
1659026351283816700,5.321816650390625,9.256278991699219,2.0005202293395996,-2.547473192214966
1659026351293487000,5.331487060546875,9.223414421081543,1.9524918794631958,-2.699406623840332
1659026351303157500,5.341157470703125,9.198042869567871,1.8991501331329346,-2.8212811946868896
1659026351312828000,5.350827880859375,9.185750961303711,1.8399568796157837,-2.8994688987731934
1659026351322498000,5.360498046875,9.189352035522461,1.7728078365325928,-2.9297373294830322
1659026351332168400,5.37016845703125,9.20919418334961,1.6947591304779053,-2.913573741912842
1659026351341838800,5.3798388671875,9.241995811462402,1.5993032455444336,-2.8632378578186035
1659026351351509200,5.38950927734375,9.285484313964844,1.4809170961380005,-2.7851502895355225
1659026351361179600,5.3991796875,9.338565826416016,1.3356293439865112,-2.6791162490844727
1659026351370849800,5.408849853515625,9.394851684570312,1.1659412384033203,-2.5588538646698
1659026351380520200,5.418520263671875,9.450732231140137,0.9817379713058472,-2.42698335647583
1659026351390190600,5.428190673828125,9.503835678100586,0.798886775970459,-2.282381772994995
1659026351399861000,5.437861083984375,9.552657127380371,0.6375530362129211,-2.123825788497925
1659026351409531400,5.447531494140625,9.598532676696777,0.5059397220611572,-1.9448848962783813
1659026351419201500,5.457201416015625,9.642976760864258,0.3971113860607147,-1.739451289176941
1659026351428872000,5.466871826171875,9.682767868041992,0.31000858545303345,-1.5225951671600342
1659026351438542300,5.476542236328125,9.718382835388184,0.23031067848205566,-1.2924364805221558
1659026351448212700,5.486212646484375,9.749736785888672,0.14375083148479462,-1.0451594591140747
1659026351457883100,5.495883056640625,9.774852752685547,0.052563559263944626,-0.7873239517211914
1659026351467553500,5.505553466796875,9.791876792907715,-0.03200192749500275,-0.5371281504631042
1659026351477223700,5.5152236328125,9.801136016845703,-0.1083812415599823,-0.3104572594165802
1659026351486894000,5.52489404296875,9.804237365722656,-0.17753255367279053,-0.12569484114646912
1659026351496564500,5.534564453125,9.803793907165527,-0.23665155470371246,0.00013352239329833537
1659026351506235000,5.54423486328125,9.802129745483398,-0.2880464792251587,0.07531247287988663
1659026351515905300,5.5539052734375,9.80025863647461,-0.33360835909843445,0.11846157163381577
1659026351525575400,5.563575439453125,9.798449516296387,-0.37338271737098694,0.14613831043243408
1659026351535245800,5.573245849609375,9.79671573638916,-0.40838801860809326,0.16717982292175293
1659026351544916200,5.582916259765625,9.794793128967285,-0.44387343525886536,0.18809014558792114
1659026351554586600,5.592586669921875,9.792856216430664,-0.47886109352111816,0.20260784029960632
1659026351564257000,5.602257080078125,9.790495872497559,-0.5195431113243103,0.21601317822933197
1659026351573927200,5.61192724609375,9.787806510925293,-0.5682131052017212,0.21530215442180634
1659026351583597600,5.62159765625,9.785392761230469,-0.6185664534568787,0.1839817315340042
1659026351593268000,5.63126806640625,9.782966613769531,-0.6678147315979004,0.13407555222511292
1659026351602938400,5.6409384765625,9.780502319335938,-0.7115585207939148,0.07650286704301834
1659026351612608800,5.65060888671875,9.778779029846191,-0.7387211322784424,0.012011097744107246
1659026351622279200,5.660279052734375,9.777817726135254,-0.749046266078949,-0.06006617099046707
1659026351631949600,5.669949462890625,9.777444839477539,-0.7429543137550354,-0.14134624600410461
1659026351641619700,5.67961962890625,9.777228355407715,-0.7220737934112549,-0.23410826921463013
1659026351651290000,5.6892900390625,9.776229858398438,-0.6912664175033569,-0.3433200716972351
1659026351660960500,5.69896044921875,9.773850440979004,-0.6521538496017456,-0.46574023365974426
1659026351670631000,5.708630859375,9.769742012023926,-0.6033737659454346,-0.5987303256988525
1659026351680301300,5.71830126953125,9.763703346252441,-0.5480701327323914,-0.7349124550819397
1659026351689971500,5.727971435546875,9.75580883026123,-0.48796865344047546,-0.8697578310966492
1659026351699641900,5.737641845703125,9.746260643005371,-0.4255225360393524,-0.9998598098754883
1659026351709312300,5.747312255859375,9.735255241394043,-0.3660814166069031,-1.123011827468872
1659026351718982700,5.756982666015625,9.722314834594727,-0.31157445907592773,-1.2449464797973633
1659026351728653000,5.766653076171875,9.705804824829102,-0.2608030438423157,-1.3783034086227417
1659026351738323200,5.7763232421875,9.685856819152832,-0.21097983419895172,-1.5198910236358643
1659026351747993900,5.785993896484375,9.6852388381958,-0.16866497695446014,-1.5290764570236206
1659026351757664000,5.7956640625,9.705351829528809,-0.13764628767967224,-1.3991405963897705
1659026351767334400,5.80533447265625,9.721168518066406,-0.10294634103775024,-1.2878954410552979
1659026351777004800,5.8150048828125,9.734115600585938,-0.07809419929981232,-1.187971830368042
1659026351786675200,5.82467529296875,9.746763229370117,-0.056877389550209045,-1.0806329250335693
1659026351796345300,5.834345458984375,9.757584571838379,-0.03698856756091118,-0.9790562391281128
1659026351806015700,5.844015625,9.766765594482422,-0.019910350441932678,-0.8833449482917786
1659026351815686100,5.85368603515625,9.77502727508545,-0.0036936893593519926,-0.7869098782539368
1659026351825356500,5.8633564453125,9.782712936401367,0.007225089706480503,-0.684747576713562
1659026351835027000,5.87302685546875,9.789328575134277,0.013719402253627777,-0.5824374556541443
1659026351844697000,5.882697021484375,9.794936180114746,0.018402252346277237,-0.47883692383766174
1659026351854367500,5.892367431640625,9.798697471618652,0.025839146226644516,-0.39401355385780334
1659026351864038000,5.902037841796875,9.801518440246582,0.03959443420171738,-0.3147448003292084
1659026351873708300,5.911708251953125,9.803651809692383,0.05868993699550629,-0.23530004918575287
1659026351883378700,5.921378662109375,9.804872512817383,0.08301743865013123,-0.16723161935806274
1659026351893048800,5.931048828125,9.805212020874023,0.11349377036094666,-0.12380953133106232
1659026351902719500,5.940719482421875,9.804937362670898,0.14820504188537598,-0.10777699202299118
1659026351912389600,5.9503896484375,9.80423355102539,0.18504878878593445,-0.11468809843063354
1659026351922060000,5.96006005859375,9.80313777923584,0.22321493923664093,-0.13801640272140503
1659026351931730400,5.96973046875,9.80162239074707,0.2618282735347748,-0.17324906587600708
1659026351941400800,5.97940087890625,9.799656867980957,0.2982334792613983,-0.21948568522930145
1659026351951071200,5.9890712890625,9.797186851501465,0.3319949209690094,-0.2744074761867523
1659026351960741400,5.998741455078125,9.794167518615723,0.36551862955093384,-0.3332820534706116
1659026351970411800,6.008411865234375,9.790916442871094,0.39798396825790405,-0.38722360134124756
1659026351980082200,6.018082275390625,9.788079261779785,0.4274887442588806,-0.425606369972229
1659026351989752600,6.027752685546875,9.786158561706543,0.4526914060115814,-0.4433477222919464
1659026351999423000,6.037423095703125,9.784907341003418,0.46987494826316833,-0.4529758393764496
1659026352009093000,6.047093017578125,9.784069061279297,0.4752919673919678,-0.4652853012084961
1659026352018763500,6.056763427734375,9.78372573852539,0.46918177604675293,-0.4785142242908478
1659026352028434000,6.066433837890625,9.783856391906738,0.4560074210166931,-0.48846670985221863
1659026352038104300,6.076104248046875,9.784401893615723,0.4411458969116211,-0.4911777675151825
1659026352047774700,6.085774658203125,9.785331726074219,0.42793816328048706,-0.48429614305496216
1659026352057444900,6.09544482421875,9.786635398864746,0.41803649067878723,-0.46627044677734375
1659026352067115500,6.105115478515625,9.788191795349121,0.4132005274295807,-0.4369722604751587
1659026352076785700,6.11478564453125,9.789774894714355,0.41455018520355225,-0.3985489010810852
1659026352086456000,6.1244560546875,9.7913179397583,0.419881135225296,-0.3524041771888733
1659026352096126500,6.13412646484375,9.792860984802246,0.42521873116493225,-0.29911068081855774
1659026352105796900,6.143796875,9.794471740722656,0.4272844195365906,-0.2369445562362671
1659026352115467000,6.153467041015625,9.79604434967041,0.4251839220523834,-0.16467547416687012
1659026352125137400,6.163137451171875,9.79740047454834,0.4175058603286743,-0.0837528258562088
1659026352134807800,6.172807861328125,9.798334121704102,0.4037806987762451,0.0031672378536313772
1659026352144478200,6.182478271484375,9.798604011535645,0.38598576188087463,0.09363837540149689
1659026352154148600,6.192148681640625,9.798066139221191,0.366231232881546,0.18484608829021454
1659026352163818800,6.20181884765625,9.7966947555542,0.34589657187461853,0.2748108208179474
1659026352173489200,6.2114892578125,9.794631958007812,0.3265760540962219,0.3590565025806427
1659026352183159600,6.22115966796875,9.792159080505371,0.31025949120521545,0.43329715728759766
1659026352192830000,6.230829833984375,9.789470672607422,0.3001888394355774,0.49653106927871704
1659026352202500400,6.240500244140625,9.786678314208984,0.29651743173599243,0.5508071780204773
1659026352212170500,6.25017041015625,9.783965110778809,0.2975305914878845,0.5965574383735657
1659026352221841200,6.259841064453125,9.781546592712402,0.30151790380477905,0.6331068873405457
1659026352231511300,6.26951123046875,9.779437065124512,0.3060939610004425,0.662794291973114
1659026352241181700,6.279181640625,9.777496337890625,0.31030356884002686,0.6889607906341553
1659026352250852000,6.28885205078125,9.775839805603027,0.3145991265773773,0.7101858258247375
1659026352260522500,6.2985224609375,9.774764060974121,0.3166958689689636,0.723934531211853
1659026352270193000,6.30819287109375,9.774062156677246,0.3179247975349426,0.7328239679336548
1659026352279863000,6.317863037109375,9.773519515991211,0.31815674901008606,0.7399189472198486
1659026352289533400,6.327533447265625,9.773000717163086,0.3204250633716583,0.7457737922668457
1659026352299203800,6.337203857421875,9.772316932678223,0.32532814145088196,0.7525745034217834
1659026352308874200,6.346874267578125,9.771496772766113,0.33026546239852905,0.7610251903533936
1659026352318544600,6.356544677734375,9.770536422729492,0.33497950434684753,0.7712306976318359
1659026352328214800,6.36621484375,9.769478797912598,0.3403989374637604,0.7821773290634155
1659026352337885200,6.37588525390625,9.768211364746094,0.34761980175971985,0.7947276830673218
1659026352347555600,6.3855556640625,9.766583442687988,0.3559049963951111,0.8109073042869568
1659026352357226000,6.39522607421875,9.764707565307617,0.3633251190185547,0.8299702405929565
1659026352366896400,6.404896484375,9.762683868408203,0.370503306388855,0.8503584861755371
1659026352376566500,6.41456640625,9.76030445098877,0.3784444332122803,0.8738603591918945
1659026352386237200,6.4242373046875,9.757369041442871,0.3867957890033722,0.9025169610977173
1659026352395907300,6.4339072265625,9.75441837310791,0.39502474665641785,0.9304113388061523
1659026352405577700,6.44357763671875,9.751739501953125,0.40263864398002625,0.954914927482605
1659026352415248100,6.453248046875,9.74936580657959,0.4096481502056122,0.9759292602539062
1659026352424918500,6.46291845703125,9.747119903564453,0.41473978757858276,0.9960099458694458
1659026352434588700,6.472588623046875,9.745022773742676,0.41775447130203247,1.0150786638259888
1659026352444259000,6.482259033203125,9.74289608001709,0.4206162691116333,1.0341335535049438
1659026352453929500,6.491929443359375,9.740255355834961,0.42253226041793823,1.0579532384872437
1659026352463599900,6.501599853515625,9.737308502197266,0.42446357011795044,1.0839909315109253
1659026352473270300,6.511270263671875,9.734328269958496,0.42778733372688293,1.1091549396514893
1659026352482940400,6.5209404296875,9.731874465942383,0.4296264052391052,1.1297935247421265
1659026352492610800,6.53061083984375,9.730987548828125,0.4326459467411041,1.1362659931182861
1659026352502281200,6.54028125,9.73176097869873,0.43848443031311035,1.1273620128631592
1659026352511951600,6.54995166015625,9.732108116149902,0.43854576349258423,1.1243361234664917
1659026352521622000,6.5596220703125,9.733857154846191,0.43433400988578796,1.1107438802719116
1659026352531292200,6.569292236328125,9.73625373840332,0.4282629191875458,1.0919358730316162
1659026352540962800,6.578962890625,9.738755226135254,0.42221298813819885,1.0718023777008057
1659026352550633000,6.588633056640625,9.741241455078125,0.418932169675827,1.0502855777740479
1659026352560303400,6.598303466796875,9.743818283081055,0.41913363337516785,1.0260132551193237
1659026352569973800,6.607973876953125,9.74618148803711,0.42333322763442993,1.0015534162521362
1659026352579644200,6.61764404296875,9.748448371887207,0.4319886863231659,0.9754554629325867
1659026352589314600,6.627314453125,9.750614166259766,0.4431014955043793,0.9484571814537048
1659026352598984700,6.636984619140625,9.752562522888184,0.4528600573539734,0.9234788417816162
1659026352608655000,6.646655029296875,9.754525184631348,0.45981770753860474,0.899003803730011
1659026352618325500,6.656325439453125,9.75672721862793,0.4661571681499481,0.8714049458503723
1659026352627996000,6.665995849609375,9.759233474731445,0.47113096714019775,0.8401079773902893
1659026352637666300,6.675666259765625,9.761730194091797,0.475384384393692,0.8081002235412598
1659026352647336400,6.68533642578125,9.76431655883789,0.482171893119812,0.7720167636871338
1659026352657006800,6.6950068359375,9.766975402832031,0.49033844470977783,0.7322118878364563
1659026352666677200,6.70467724609375,9.769442558288574,0.4991791546344757,0.6922383904457092
1659026352676347600,6.71434765625,9.771537780761719,0.5088170170783997,0.65464186668396
1659026352686018000,6.72401806640625,9.77314281463623,0.5193446278572083,0.621570348739624
1659026352695688200,6.733688232421875,9.774266242980957,0.5302795171737671,0.5940612554550171
1659026352705358600,6.743358642578125,9.775035858154297,0.5396230816841125,0.572600781917572
1659026352715029000,6.753029052734375,9.77544116973877,0.5467624664306641,0.5587355494499207
1659026352724699400,6.762699462890625,9.775548934936523,0.5508416891098022,0.5528056621551514
1659026352734369800,6.772369873046875,9.775335311889648,0.5515466332435608,0.5558840036392212
1659026352744040200,6.782040283203125,9.77484130859375,0.5500312447547913,0.5659975409507751
1659026352753710300,6.79171044921875,9.774189949035645,0.5462408661842346,0.5807037353515625
1659026352763380700,6.801380615234375,9.773537635803223,0.5402846932411194,0.5970268249511719
1659026352773051100,6.811051025390625,9.772841453552246,0.5342391729354858,0.6136386394500732
1659026352782721500,6.820721435546875,9.772156715393066,0.5288352370262146,0.6290257573127747
1659026352792392000,6.830391845703125,9.771530151367188,0.5237385034561157,0.6428705453872681
1659026352802062000,6.84006201171875,9.77087688446045,0.5197740793228149,0.655883252620697
1659026352811732500,6.849732421875,9.770145416259766,0.5163357853889465,0.6693488359451294
1659026352821403000,6.85940283203125,9.76944351196289,0.5141790509223938,0.6811618208885193
1659026352831073300,6.8690732421875,9.768688201904297,0.5123860239982605,0.6932450532913208
1659026352840743700,6.87874365234375,9.767707824707031,0.5108306407928467,0.7080453038215637
1659026352850413800,6.888413818359375,9.766490936279297,0.5104976296424866,0.7248672246932983
1659026352860084500,6.89808447265625,9.765155792236328,0.5097855925559998,0.7431306838989258
1659026352869754600,6.907754638671875,9.763790130615234,0.508124589920044,0.7619686126708984
1659026352879425000,6.917425048828125,9.762393951416016,0.505730926990509,0.7812142372131348
1659026352889095400,6.927095458984375,9.760954856872559,0.502663791179657,0.8009210824966431
1659026352898765800,6.936765869140625,9.759374618530273,0.4989520311355591,0.8222113847732544
1659026352908436200,6.946436279296875,9.757616996765137,0.4951532185077667,0.8450596332550049
1659026352918106400,6.9561064453125,9.755644798278809,0.4916662275791168,0.8695125579833984
1659026352927776800,6.96577685546875,9.753491401672363,0.4874610900878906,0.8956379294395447
1659026352937447200,6.975447265625,9.751153945922852,0.482344388961792,0.9234312772750854
1659026352947117600,6.98511767578125,9.74853801727295,0.4768393635749817,0.9534195065498352
1659026352956788000,6.9947880859375,9.745600700378418,0.4720279574394226,0.9853075742721558
1659026352966458000,7.0044580078125,9.742212295532227,0.4686095118522644,1.0198450088500977
1659026352976128500,7.01412841796875,9.73830795288086,0.4660507142543793,1.0576136112213135
1659026352985799000,7.023798828125,9.733707427978516,0.4649878144264221,1.0996007919311523
1659026352995469300,7.03346923828125,9.728354454040527,0.4647614061832428,1.1460860967636108
1659026353005139700,7.0431396484375,9.722460746765137,0.46486911177635193,1.1950099468231201
1659026353014810000,7.05281005859375,9.71605396270752,0.46388304233551025,1.2463922500610352
1659026353024480300,7.062480224609375,9.709310531616211,0.4609694480895996,1.29891836643219
1659026353034150700,7.072150634765625,9.70230770111084,0.4569518566131592,1.3516020774841309
1659026353043821000,7.081821044921875,9.695181846618652,0.4514941871166229,1.4035617113113403
1659026353053491500,7.091491455078125,9.68826675415039,0.4444447457790375,1.4527033567428589
1659026353063161900,7.101161865234375,9.682254791259766,0.43622368574142456,1.4946715831756592
1659026353072832000,7.11083203125,9.677568435668945,0.4281565845012665,1.5270023345947266
1659026353082502400,7.12050244140625,9.674470901489258,0.42114555835723877,1.5484296083450317
1659026353092172800,7.1301728515625,9.673913955688477,0.4165797531604767,1.553141713142395
1659026353101843200,7.13984326171875,9.67618465423584,0.41723209619522095,1.5387498140335083
1659026353111513600,7.149513671875,9.680975914001465,0.42429593205451965,1.5063437223434448
1659026353121183700,7.159183837890625,9.688324928283691,0.43611592054367065,1.4548395872116089
1659026353130854100,7.168854248046875,9.698394775390625,0.45183804631233215,1.381071925163269
1659026353140524500,7.178524658203125,9.710731506347656,0.4718817174434662,1.2842907905578613
1659026353150195000,7.18819482421875,9.725351333618164,0.4960898160934448,1.1583720445632935
1659026353159865300,7.197865234375,9.7418212890625,0.5270046591758728,0.994770884513855
1659026353169535500,7.207535400390625,9.756621360778809,0.5664998292922974,0.8110535740852356
1659026353179206100,7.2172060546875,9.764379501342773,0.6209332346916199,0.664629340171814
1659026353188876300,7.226876220703125,9.769807815551758,0.6742843389511108,0.516306459903717
1659026353198546700,7.236546630859375,9.773042678833008,0.723844587802887,0.3661574423313141
1659026353208217000,7.246217041015625,9.774178504943848,0.766068160533905,0.22126224637031555
1659026353217887500,7.255887451171875,9.773689270019531,0.7987064123153687,0.08626409620046616
1659026353227558000,7.265557861328125,9.772136688232422,0.8212383985519409,-0.03612937405705452
1659026353237228000,7.27522802734375,9.769791603088379,0.8368369340896606,-0.14586757123470306
1659026353246898400,7.2848984375,9.766674995422363,0.8495128750801086,-0.24655023217201233
1659026353256568800,7.29456884765625,9.762916564941406,0.8608440160751343,-0.3388202488422394
1659026353266239200,7.3042392578125,9.75839614868164,0.8742215633392334,-0.4240533411502838
1659026353275909600,7.31390966796875,9.753067970275879,0.8923467397689819,-0.5017511248588562
1659026353285579800,7.323579833984375,9.74694538116455,0.9159473776817322,-0.5731339454650879
1659026353295250200,7.333250244140625,9.739828109741211,0.9457206726074219,-0.6416794061660767
1659026353304920600,7.342920654296875,9.73196029663086,0.978714644908905,-0.7081339359283447
1659026353314591000,7.352591064453125,9.723777770996094,1.0126045942306519,-0.7701593637466431
1659026353324261000,7.36226123046875,9.715885162353516,1.0458941459655762,-0.8234522342681885
1659026353333931800,7.371931884765625,9.708656311035156,1.0784631967544556,-0.8656231164932251
1659026353343602000,7.381601806640625,9.702234268188477,1.1106958389282227,-0.8963272571563721
1659026353353272300,7.391272216796875,9.696476936340332,1.1431398391723633,-0.917571485042572
1659026353362942700,7.400942626953125,9.691173553466797,1.1764049530029297,-0.9314635992050171
1659026353372613000,7.410613037109375,9.686344146728516,1.2094429731369019,-0.9393417835235596
1659026353382283500,7.420283447265625,9.682169914245605,1.2417778968811035,-0.9401887655258179
1659026353391953700,7.42995361328125,9.678646087646484,1.2737427949905396,-0.933685302734375
1659026353401624000,7.4396240234375,9.675910949707031,1.304137945175171,-0.9199815988540649
1659026353411294500,7.44929443359375,9.673612594604492,1.3329412937164307,-0.9027090072631836
1659026353420964900,7.45896484375,9.67113971710205,1.3614623546600342,-0.8864951133728027
1659026353430635300,7.46863525390625,9.668537139892578,1.3895221948623657,-0.8712142109870911
1659026353440305400,7.478305419921875,9.665826797485352,1.4176398515701294,-0.8558574914932251
1659026353449975800,7.487975830078125,9.66263484954834,1.4470384120941162,-0.8425872325897217
1659026353459646200,7.497646240234375,9.659475326538086,1.4763704538345337,-0.8278130888938904
1659026353469316600,7.507316650390625,9.65666675567627,1.5052465200424194,-0.8083395957946777
1659026353478987000,7.516987060546875,9.6541748046875,1.5330427885055542,-0.7855374813079834
1659026353488657200,7.5266572265625,9.652000427246094,1.5577558279037476,-0.7633199691772461
1659026353498327600,7.53632763671875,9.650015830993652,1.5793871879577637,-0.74372398853302
1659026353507998000,7.545998046875,9.648597717285156,1.5977085828781128,-0.7226791977882385
1659026353517668400,7.55566845703125,9.648357391357422,1.6114736795425415,-0.6947874426841736
1659026353527338800,7.5653388671875,9.649605751037598,1.6190954446792603,-0.6588073372840881
1659026353537009200,7.575009033203125,9.652121543884277,1.619847059249878,-0.6188896894454956
1659026353546679300,7.58467919921875,9.655744552612305,1.6125248670578003,-0.5803110599517822
1659026353556349700,7.594349609375,9.66024398803711,1.5969007015228271,-0.5476950407028198
1659026353566020000,7.60402001953125,9.665362358093262,1.5741195678710938,-0.5227961540222168
1659026353575690500,7.6136904296875,9.670619010925293,1.546730399131775,-0.5070846676826477
1659026353585361000,7.62336083984375,9.675077438354492,1.5193923711776733,-0.5046916604042053
1659026353595031000,7.633031005859375,9.677939414978027,1.4961484670639038,-0.5190616846084595
1659026353604701400,7.642701416015625,9.678804397583008,1.4793832302093506,-0.5500527024269104
1659026353614371800,7.652371826171875,9.677836418151855,1.469388484954834,-0.5922547578811646
1659026353624042200,7.662042236328125,9.674659729003906,1.4692569971084595,-0.6423704624176025
1659026353633712600,7.671712646484375,9.6693696975708,1.4790194034576416,-0.6972700953483582
1659026353643382800,7.6813828125,9.662178039550781,1.4975241422653198,-0.7550694346427917
1659026353653053400,7.691053466796875,9.653231620788574,1.5231091976165771,-0.8158678412437439
1659026353662723600,7.7007236328125,9.642833709716797,1.55366051197052,-0.878799557685852
1659026353672394000,7.71039404296875,9.631599426269531,1.5869102478027344,-0.9404245018959045
1659026353682064400,7.720064453125,9.620631217956543,1.6206902265548706,-0.9935744404792786
1659026353691734800,7.72973486328125,9.611005783081055,1.6522222757339478,-1.0339839458465576
1659026353701405200,7.7394052734375,9.603462219238281,1.6786290407180786,-1.0611859560012817
1659026353711075300,7.749075439453125,9.598198890686035,1.69881010055542,-1.076583743095398
1659026353720745700,7.758745849609375,9.595423698425293,1.7135465145111084,-1.0779495239257812
1659026353730416000,7.768416015625,9.595367431640625,1.723636269569397,-1.0622622966766357
1659026353740086500,7.77808642578125,9.597393035888672,1.730774164199829,-1.0319256782531738
1659026353749756700,7.787756591796875,9.601056098937988,1.7350481748580933,-0.9898112416267395
1659026353759427000,7.797427001953125,9.60646915435791,1.7339754104614258,-0.9377930164337158
1659026353769097500,7.807097412109375,9.613097190856934,1.7284519672393799,-0.8781812787055969
1659026353778768000,7.816767822265625,9.619414329528809,1.7216676473617554,-0.8204416036605835
1659026353788438300,7.826438232421875,9.62430191040039,1.7154208421707153,-0.7749491333961487
1659026353798108400,7.8361083984375,9.627677917480469,1.708425760269165,-0.7479897141456604
1659026353807778800,7.84577880859375,9.629791259765625,1.6999857425689697,-0.7399750351905823
1659026353817449200,7.85544921875,9.630892753601074,1.6901382207870483,-0.7481422424316406
1659026353827119600,7.86511962890625,9.631072044372559,1.67996084690094,-0.768489420413971
1659026353836790000,7.8747900390625,9.630387306213379,1.670567512512207,-0.7970215082168579
1659026353846460400,7.88446044921875,9.628575325012207,1.66447114944458,-0.8309404850006104
1659026353856130800,7.894130859375,9.62524700164795,1.664781093597412,-0.868046760559082
1659026353865801000,7.903801025390625,9.6198091506958,1.674453854560852,-0.9087709188461304
1659026353875471400,7.913471435546875,9.61220932006836,1.693828821182251,-0.9522348642349243
1659026353885141800,7.923141845703125,9.60252571105957,1.7203720808029175,-1.0011073350906372
1659026353894812200,7.932812255859375,9.591238021850586,1.749060869216919,-1.0579832792282104
1659026353904482600,7.942482666015625,9.57982063293457,1.77308988571167,-1.1196351051330566
1659026353914152700,7.952152587890625,9.569727897644043,1.787936806678772,-1.1806666851043701
1659026353923823000,7.961822998046875,9.561971664428711,1.7917654514312744,-1.2363909482955933
1659026353933493500,7.971493408203125,9.556828498840332,1.7850425243377686,-1.284928321838379
1659026353943164000,7.981163818359375,9.554205894470215,1.769513487815857,-1.3252720832824707
1659026353952834300,7.990834228515625,9.554290771484375,1.7470204830169678,-1.3541922569274902
1659026353962504400,8.00050439453125,9.556723594665527,1.7218010425567627,-1.3692405223846436
1659026353972174800,8.0101748046875,9.560362815856934,1.699742078781128,-1.3713948726654053
1659026353981845200,8.01984521484375,9.564024925231934,1.6841613054275513,-1.3650705814361572
1659026353991515600,8.029515625,9.567173957824707,1.676144003868103,-1.3528130054473877
1659026354001186000,8.03918603515625,9.569493293762207,1.674834966659546,-1.3379546403884888
1659026354010856400,8.0488564453125,9.570929527282715,1.6783462762832642,-1.3231970071792603
1659026354020526600,8.058526611328125,9.572138786315918,1.683715581893921,-1.307537317276001
1659026354030197000,8.068197021484375,9.574047088623047,1.687631368637085,-1.2883777618408203
1659026354039867400,8.077867431640625,9.577028274536133,1.688899040222168,-1.2643319368362427
1659026354049537800,8.087537841796875,9.581005096435547,1.687280535697937,-1.2360488176345825
1659026354059208200,8.097208251953125,9.585724830627441,1.6829169988632202,-1.2050138711929321
1659026354068878300,8.10687841796875,9.590746879577637,1.6769425868988037,-1.1729567050933838
1659026354078548700,8.116548828125,9.595871925354004,1.6700880527496338,-1.1403659582138062
1659026354088219100,8.12621923828125,9.600852966308594,1.662705898284912,-1.1087918281555176
1659026354097889500,8.1358896484375,9.605670928955078,1.6547529697418213,-1.0785456895828247
1659026354107560000,8.145559814453126,9.610081672668457,1.6477166414260864,-1.0496442317962646
1659026354117230000,8.15522998046875,9.613744735717773,1.6428043842315674,-1.0234767198562622
1659026354126900500,8.164900390625,9.616716384887695,1.6402742862701416,-0.9993289709091187
1659026354136571000,8.17457080078125,9.619047164916992,1.6407657861709595,-0.9758092164993286
1659026354146241300,8.1842412109375,9.62076473236084,1.6447532176971436,-0.9518722295761108
1659026354155911700,8.19391162109375,9.622015953063965,1.6513429880142212,-0.9275148510932922
1659026354165582000,8.20358203125,9.623026847839355,1.6591215133666992,-0.9028060436248779
1659026354175252200,8.213252197265625,9.624229431152344,1.6664506196975708,-0.8760955929756165
1659026354184922600,8.222922607421875,9.625828742980957,1.6725438833236694,-0.8464013338088989
1659026354194593000,8.232593017578125,9.627845764160156,1.6770962476730347,-0.8138290643692017
1659026354204263400,8.242263427734375,9.63025188446045,1.6800432205200195,-0.7785130143165588
1659026354213933800,8.251933837890626,9.632875442504883,1.6816332340240479,-0.7417535781860352
1659026354223604000,8.26160400390625,9.635886192321777,1.6809139251708984,-0.7032930850982666
1659026354233274400,8.2712744140625,9.639535903930664,1.6766782999038696,-0.6621812582015991
1659026354242944800,8.28094482421875,9.643830299377441,1.668958306312561,-0.6176415085792542
1659026354252615200,8.290615234375,9.648344039916992,1.6602222919464111,-0.5687729120254517
1659026354262285600,8.30028564453125,9.652535438537598,1.6535972356796265,-0.5143532752990723
1659026354271955700,8.309955810546874,9.656098365783691,1.6506617069244385,-0.4532833695411682
1659026354281626000,8.319626220703125,9.658956527709961,1.6513926982879639,-0.3845173120498657
1659026354291296500,8.329296630859375,9.660917282104492,1.6559326648712158,-0.30813664197921753
1659026354300967000,8.338966796875,9.663368225097656,1.6560499668121338,-0.217278853058815
1659026354310637300,8.34863720703125,9.664809226989746,1.6573981046676636,-0.12195081263780594
1659026354320307700,8.3583076171875,9.665325164794922,1.658653736114502,-0.02690342254936695
1659026354329977900,8.367977783203125,9.665532112121582,1.6561882495880127,0.0701720267534256
1659026354339648300,8.377648193359375,9.665322303771973,1.6505358219146729,0.16630856692790985
1659026354349318700,8.387318603515626,9.664934158325195,1.6411710977554321,0.25691282749176025
1659026354358989000,8.396989013671876,9.664397239685059,1.6299649477005005,0.3362167179584503
1659026354368659500,8.406659423828126,9.663935661315918,1.6174160242080688,0.4033737778663635
1659026354378329600,8.41632958984375,9.66373348236084,1.6032700538635254,0.4606155455112457
1659026354388000000,8.426,9.66378116607666,1.5880588293075562,0.5096905827522278
1659026354397670400,8.43567041015625,9.664113998413086,1.5720990896224976,0.5511705279350281
1659026354407340800,8.4453408203125,9.665043830871582,1.5547409057617188,0.583178699016571
1659026354417011200,8.45501123046875,9.666799545288086,1.536394476890564,0.6023861169815063
1659026354426681300,8.464681396484375,9.66939640045166,1.5179176330566406,0.6075260639190674
1659026354436351700,8.474351806640625,9.672606468200684,1.500708818435669,0.5991166830062866
1659026354446022100,8.484022216796875,9.676207542419434,1.4851226806640625,0.5794849991798401
1659026354455692500,8.493692626953125,9.680120468139648,1.4703238010406494,0.5512008666992188
1659026354465363000,8.503363037109375,9.684347152709961,1.4550113677978516,0.5164932608604431
1659026354475033000,8.513033203125,9.688844680786133,1.4382623434066772,0.4775817096233368
1659026354484703500,8.522703369140626,9.693330764770508,1.4205005168914795,0.4380604922771454
1659026354494374000,8.532373779296876,9.697487831115723,1.4032059907913208,0.4001660645008087
1659026354504044300,8.542044189453126,9.701059341430664,1.388228178024292,0.3642122745513916
1659026354513714700,8.551714599609374,9.70803451538086,1.348317265510559,0.3263362646102905
1659026354523385000,8.561385009765624,9.714253425598145,1.311527967453003,0.2890915274620056
1659026354533055200,8.57105517578125,9.720033645629883,1.2756727933883667,0.25297173857688904
1659026354542725600,8.5807255859375,9.725391387939453,1.2408649921417236,0.21772368252277374
1659026354552396000,8.59039599609375,9.730108261108398,1.2089107036590576,0.18420827388763428
1659026354562066400,8.60006640625,9.734115600585938,1.1804473400115967,0.15471859276294708
1659026354571736800,8.60973681640625,9.73750114440918,1.155239224433899,0.12987913191318512
1659026354581407000,8.619406982421875,9.740450859069824,1.1324533224105835,0.10752065479755402
1659026354591077400,8.629077392578125,9.74310302734375,1.1111960411071777,0.08697997778654099
1659026354600747800,8.638747802734375,9.745680809020996,1.0897046327590942,0.06796666234731674
1659026354610418200,8.648418212890626,9.748174667358398,1.0682374238967896,0.04841498285531998
1659026354620088600,8.658088623046876,9.750510215759277,1.0474506616592407,0.028044959530234337
1659026354629758700,8.6677587890625,9.752670288085938,1.0275006294250488,0.006965273059904575
1659026354639429000,8.67742919921875,9.75466251373291,1.0083353519439697,-0.014905817806720734
1659026354649099500,8.687099609375,9.756499290466309,0.9898039102554321,-0.03750304505228996
1659026354658770000,8.69677001953125,9.758216857910156,0.9715969562530518,-0.06009676307439804
1659026354668440300,8.7064404296875,9.75979995727539,0.95391446352005,-0.08203033357858658
1659026354678110700,8.71611083984375,9.761323928833008,0.9362623691558838,-0.10174259543418884
1659026354687780900,8.72578076171875,9.762797355651855,0.9189059138298035,-0.11744419485330582
1659026354697451300,8.735451171875,9.764212608337402,0.9018903970718384,-0.13084754347801208
1659026354707121700,8.74512158203125,9.765674591064453,0.8838930726051331,-0.14391547441482544
1659026354716792000,8.7547919921875,9.767349243164062,0.8629668354988098,-0.1567191481590271
1659026354726462500,8.76446240234375,9.769124031066895,0.8403950333595276,-0.16833963990211487
1659026354736132600,8.774132568359375,9.770959854125977,0.8170042634010315,-0.1767498105764389
1659026354745803000,8.783802978515626,9.772799491882324,0.7932008504867554,-0.1833830028772354
1659026354755473400,8.793473388671876,9.774548530578613,0.7698933482170105,-0.18933957815170288
1659026354765143800,8.803143798828126,9.776302337646484,0.7459068894386292,-0.19471433758735657
1659026354774814200,8.812814208984374,9.7779541015625,0.7228275537490845,-0.19877088069915771
1659026354784484400,8.822484375,9.779338836669922,0.703376293182373,-0.20045074820518494
1659026354794154800,8.83215478515625,9.780618667602539,0.6861987113952637,-0.19755449891090393
1659026354803825200,8.8418251953125,9.781901359558105,0.6698529720306396,-0.1899585723876953
1659026354813495600,8.85149560546875,9.783130645751953,0.6540423631668091,-0.18160749971866608
1659026354823166000,8.861166015625,9.784212112426758,0.6392301917076111,-0.1759747415781021
1659026354832836400,8.87083642578125,9.7852144241333,0.624264657497406,-0.17393572628498077
1659026354842506500,8.880506591796875,9.786221504211426,0.6078450083732605,-0.17543792724609375
1659026354852177000,8.890177001953125,9.78722858428955,0.5901764035224915,-0.1795293241739273
1659026354861847300,8.899847412109375,9.788261413574219,0.5715398192405701,-0.18352241814136505
1659026354871517700,8.909517578125,9.789299011230469,0.552556574344635,-0.1862761229276657
1659026354881188000,8.91918798828125,9.790362358093262,0.5329070687294006,-0.18761032819747925
1659026354890858200,8.928858154296876,9.791407585144043,0.5124761462211609,-0.1900106966495514
1659026354900528600,8.938528564453126,9.792447090148926,0.49172690510749817,-0.19126757979393005
1659026354910199000,8.948198974609374,9.79360294342041,0.4700518846511841,-0.1864926517009735
1659026354919869400,8.957869384765624,9.794906616210938,0.4472283124923706,-0.17373067140579224
1659026354929539800,8.967539794921874,9.796160697937012,0.4258814752101898,-0.15570282936096191
1659026354939210000,8.9772099609375,9.797208786010742,0.40841174125671387,-0.13526424765586853
1659026354948880400,8.98688037109375,9.798050880432129,0.3942483365535736,-0.11470432579517365
1659026354958550800,8.99655078125,9.798717498779297,0.38267210125923157,-0.09529060125350952
1659026354968221200,9.00622119140625,9.79920768737793,0.3740282952785492,-0.07765109837055206
1659026354977891300,9.015891357421875,9.799558639526367,0.36808112263679504,-0.059553660452365875
1659026354987562000,9.02556201171875,9.799748420715332,0.3656170666217804,-0.04049638286232948
1659026354997232000,9.035232177734375,9.799757957458496,0.36710497736930847,-0.019205093383789062
1659026355006902500,9.044902587890626,9.79964542388916,0.37054243683815,0.00490410253405571
1659026355016573000,9.054572998046876,9.799436569213867,0.37497714161872864,0.028720641508698463
1659026355026243300,9.064243408203126,9.799180030822754,0.3794425427913666,0.04985131323337555
1659026355035913700,9.073913818359374,9.799015998840332,0.3807677924633026,0.06834015250205994
1659026355045584000,9.083583984375,9.799036979675293,0.3769494295120239,0.08462242037057877
1659026355055254300,9.093254150390624,9.79916000366211,0.3703663945198059,0.09843127429485321
1659026355064924700,9.102924560546874,9.799278259277344,0.3641788363456726,0.109066903591156
1659026355074595000,9.112594970703125,9.799384117126465,0.35892537236213684,0.11672151833772659
1659026355084265200,9.12226513671875,9.799549102783203,0.35362011194229126,0.11913523077964783
1659026355093935600,9.131935546875,9.799764633178711,0.3487214148044586,0.11574749648571014
1659026355103606000,9.14160595703125,9.79998779296875,0.3449491262435913,0.10785387456417084
1659026355113276400,9.1512763671875,9.800211906433105,0.3424001634120941,0.0948476791381836
1659026355122946800,9.16094677734375,9.800482749938965,0.3396032154560089,0.07469318062067032
1659026355132617000,9.170616943359375,9.800772666931152,0.33599668741226196,0.04843229427933693
1659026355142287400,9.180287353515626,9.801000595092773,0.33228495717048645,0.018679117783904076
1659026355151957800,9.189957763671876,9.80113410949707,0.3286806046962738,-0.011991038918495178
1659026355161628200,9.199628173828126,9.801217079162598,0.3239695131778717,-0.03958654776215553
1659026355171298600,9.209298583984374,9.801308631896973,0.31750062108039856,-0.06277410686016083
1659026355180969000,9.218968994140624,9.801413536071777,0.30987897515296936,-0.08161615580320358
1659026355190639400,9.228639404296874,9.8015718460083,0.3003826141357422,-0.09666041284799576
1659026355200309500,9.2383095703125,9.801737785339355,0.28962260484695435,-0.11148157715797424
1659026355209980000,9.24797998046875,9.801795959472656,0.2802218496799469,-0.12901009619235992
1659026355219650300,9.257650390625,9.801743507385254,0.27237263321876526,-0.14841924607753754
1659026355229320700,9.26732080078125,9.801680564880371,0.2645028531551361,-0.1657828688621521
1659026355238990800,9.276990966796875,9.801648139953613,0.2569674253463745,-0.17901389300823212
1659026355248661200,9.2866611328125,9.801692962646484,0.2483314722776413,-0.1885007917881012
1659026355258331600,9.29633154296875,9.801868438720703,0.23740781843662262,-0.19339728355407715
1659026355268002000,9.306001953125,9.802099227905273,0.22752131521701813,-0.1935761421918869
1659026355277672400,9.31567236328125,9.802331924438477,0.2204948514699936,-0.18986263871192932
1659026355287342600,9.325342529296876,9.802543640136719,0.21523809432983398,-0.18494336307048798
1659026355297013000,9.335012939453126,9.802745819091797,0.2113601565361023,-0.1785297393798828
1659026355306683400,9.344683349609374,9.802935600280762,0.21067939698696136,-0.1686680167913437
1659026355316353800,9.354353759765624,9.80300235748291,0.2156532108783722,-0.15817891061306
1659026355326024200,9.364024169921874,9.802909851074219,0.22597989439964294,-0.1492706537246704
1659026355335694300,9.3736943359375,9.802667617797852,0.2397567480802536,-0.14355455338954926
1659026355345364700,9.38336474609375,9.8023099899292,0.2545001804828644,-0.14260545372962952
1659026355355035100,9.39303515625,9.80182933807373,0.26928284764289856,-0.14837568998336792
1659026355364705500,9.40270556640625,9.80129337310791,0.2814180254936218,-0.16073337197303772
1659026355374376000,9.4123759765625,9.800809860229492,0.2879253625869751,-0.17777429521083832
1659026355384046300,9.42204638671875,9.800329208374023,0.29144877195358276,-0.1974426656961441
1659026355393716500,9.431716552734375,9.799783706665039,0.294951468706131,-0.21827232837677002
1659026355403387000,9.441386962890626,9.799077033996582,0.30238354206085205,-0.23883526027202606
1659026355413057300,9.451057373046876,9.7981538772583,0.31584689021110535,-0.2584596574306488
1659026355422727700,9.460727783203126,9.797042846679688,0.33286479115486145,-0.2784672975540161
1659026355432398000,9.470398193359374,9.7960786819458,0.3459695875644684,-0.29585662484169006
1659026355442068200,9.480068115234374,9.795380592346191,0.3513137996196747,-0.31222519278526306
1659026355451738600,9.489738525390624,9.79351806640625,0.3711138665676117,-0.34592896699905396
1659026355461409000,9.499408935546874,9.791768074035645,0.3820553421974182,-0.3816981315612793
1659026355471079400,9.509079345703125,9.790144920349121,0.3884480595588684,-0.41539156436920166
1659026355480749600,9.51874951171875,9.788103103637695,0.39520367980003357,-0.4552282392978668
1659026355490420000,9.528419921875,9.78593635559082,0.3983519673347473,-0.4971548616886139
1659026355500090400,9.53809033203125,9.784200668334961,0.39645591378211975,-0.5316197276115417
1659026355509760800,9.5477607421875,9.783239364624023,0.3907831311225891,-0.5530862212181091
1659026355519431200,9.55743115234375,9.782666206359863,0.3865479528903961,-0.5660550594329834
1659026355529101600,9.5671015625,9.782337188720703,0.3842918276786804,-0.5732097625732422
1659026355538772000,9.57677197265625,9.782140731811523,0.3823332190513611,-0.5778681039810181
1659026355548442000,9.586442138671876,9.781471252441406,0.38351014256477356,-0.5883287191390991
1659026355558112500,9.596112548828126,9.78034496307373,0.3862580955028534,-0.605015218257904
1659026355567783000,9.605782958984374,9.77889633178711,0.3890380859375,-0.6262778639793396
1659026355577453300,9.615453369140624,9.777278900146484,0.3908637464046478,-0.6499379873275757
1659026355587123500,9.62512353515625,9.775542259216309,0.3916235566139221,-0.6751272082328796
1659026355596793900,9.6347939453125,9.773933410644531,0.391061007976532,-0.698341429233551
1659026355606464300,9.64446435546875,9.772640228271484,0.388955295085907,-0.7173527479171753
1659026355616134700,9.654134765625,9.77170467376709,0.3838281035423279,-0.7327000498771667
1659026355625805000,9.66380517578125,9.770861625671387,0.3782122731208801,-0.7467206120491028
1659026355635475200,9.67347509765625,9.76990795135498,0.374703973531723,-0.7608455419540405
1659026355645145600,9.6831455078125,9.768885612487793,0.37339043617248535,-0.7745015621185303
1659026355654816000,9.69281591796875,9.768020629882812,0.37277746200561523,-0.785616934299469
1659026355664486400,9.702486328125,9.767801284790039,0.370125412940979,-0.7895943522453308
1659026355674156800,9.71215673828125,9.768247604370117,0.3654395341873169,-0.7862493991851807
1659026355683827000,9.721826904296876,9.769396781921387,0.35919076204299927,-0.7747634649276733
1659026355693497300,9.731497314453126,9.77121639251709,0.35216251015663147,-0.7547875642776489
1659026355703167700,9.741167724609374,9.773358345031738,0.34837809205055237,-0.7283467054367065
1659026355712838100,9.750838134765624,9.775480270385742,0.3496147096157074,-0.6986734867095947
1659026355722508500,9.760508544921874,9.777210235595703,0.35491156578063965,-0.671249270439148
1659026355732179000,9.770178955078125,9.778428077697754,0.3619527518749237,-0.6494067907333374
1659026355741849000,9.77984912109375,9.779265403747559,0.3667231500148773,-0.6339325904846191
1659026355751519500,9.78951953125,9.779786109924316,0.3675394356250763,-0.625373899936676
1659026355761190000,9.79918994140625,9.77987289428711,0.36414751410484314,-0.6259989738464355
1659026355770860300,9.8088603515625,9.779356002807617,0.3569605350494385,-0.6381053328514099
1659026355780530700,9.81853076171875,9.777894973754883,0.349450945854187,-0.664114773273468
1659026355790200800,9.828200927734375,9.775245666503906,0.3448996841907501,-0.7042794227600098
1659026355799871200,9.837871337890626,9.771366119384766,0.34492236375808716,-0.7561922073364258
1659026355809541600,9.847541748046876,9.766239166259766,0.3505879044532776,-0.817348062992096
1659026355819212000,9.8572119140625,9.760098457336426,0.3613808751106262,-0.8833313584327698
1659026355828882200,9.866882080078126,9.753327369689941,0.3738187551498413,-0.9503950476646423
1659026355838552600,9.876552490234374,9.746112823486328,0.38509219884872437,-1.0175292491912842
1659026355848223000,9.886222900390624,9.738895416259766,0.3938342034816742,-1.0812976360321045
1659026355857893400,9.895893310546874,9.73250675201416,0.39984840154647827,-1.1352636814117432
1659026355867563800,9.905563720703125,9.72761344909668,0.40476205945014954,-1.1747766733169556
1659026355877234200,9.915234130859375,9.724496841430664,0.40987223386764526,-1.198561668395996
1659026355886904600,9.924904541015625,9.723214149475098,0.41670605540275574,-1.206587791442871
1659026355896574700,9.93457470703125,9.723173141479492,0.42591190338134766,-1.2037016153335571
1659026355906245000,9.9442451171875,9.7239351272583,0.4375848174095154,-1.1933200359344482
1659026355915915500,9.95391552734375,9.725606918334961,0.4507709741592407,-1.1746376752853394
1659026355925586000,9.9635859375,9.728174209594727,0.46594032645225525,-1.147141933441162
1659026355935256000,9.973256103515626,9.731398582458496,0.4820381700992584,-1.112618088722229
1659026355944926500,9.982926513671876,9.735251426696777,0.49605897068977356,-1.0720040798187256
1659026355954596900,9.992596923828126,9.739462852478027,0.5076155066490173,-1.027414321899414
1659026355964267300,10.002267333984374,9.743756294250488,0.517410933971405,-0.9807591438293457
1659026355973937700,10.011937744140624,9.747900009155273,0.526324987411499,-0.9337083697319031
1659026355983607800,10.02160791015625,9.751755714416504,0.5355930924415588,-0.8870113492012024
1659026355993278200,10.0312783203125,9.755327224731445,0.546378493309021,-0.8399175405502319
1659026356002948600,10.040948486328125,9.758600234985352,0.558919370174408,-0.7922829985618591
1659026356012619000,10.050618896484375,9.761582374572754,0.5733376741409302,-0.7437586188316345
1659026356022289200,10.0602890625,9.764089584350586,0.5888267159461975,-0.6973001956939697
1659026356031959600,10.06995947265625,9.765949249267578,0.6048176884651184,-0.656360387802124
1659026356041630000,10.0796298828125,9.767374038696289,0.6209615468978882,-0.6190264821052551
1659026356051300400,10.08930029296875,9.768866539001465,0.634634792804718,-0.5804038047790527
1659026356060970800,10.098970703125,9.770637512207031,0.6444097757339478,-0.5383074879646301
1659026356070641200,10.10864111328125,9.772913932800293,0.649868369102478,-0.4880676567554474
1659026356080311600,10.1183115234375,9.775715827941895,0.6503921747207642,-0.4274941384792328
1659026356089981700,10.127981689453126,9.77863597869873,0.6480051279067993,-0.35881781578063965
1659026356099652000,10.137652099609374,9.781229019165039,0.645159900188446,-0.28584444522857666
1659026356109322500,10.147322509765624,9.782637596130371,0.6422948241233826,-0.2405206561088562
1659026356118993000,10.156992919921874,9.78353500366211,0.6412658095359802,-0.2040083259344101
1659026356128663000,10.1666630859375,9.783943176269531,0.6423189043998718,-0.17961522936820984
1659026356138333400,10.17633349609375,9.783900260925293,0.6456509232521057,-0.1697620004415512
1659026356148003800,10.18600390625,9.783650398254395,0.6487172842025757,-0.17242473363876343
1659026356157674200,10.19567431640625,9.783305168151855,0.6496434211730957,-0.18786734342575073
1659026356167344600,10.2053447265625,9.782916069030762,0.6475718021392822,-0.213528111577034
1659026356177014800,10.215014892578125,9.7825345993042,0.6425259113311768,-0.24403426051139832
1659026356186685200,10.224685302734375,9.782227516174316,0.6348684430122375,-0.274496465921402
1659026356196355600,10.23435546875,9.781981468200684,0.6263478398323059,-0.30151262879371643
1659026356206026000,10.24402587890625,9.781710624694824,0.6193118691444397,-0.3239847421646118
1659026356215696100,10.253696044921876,9.781318664550781,0.6158879399299622,-0.34188494086265564
1659026356225366500,10.263366455078126,9.780701637268066,0.6170957088470459,-0.35700756311416626
1659026356235037000,10.273036865234374,9.779790878295898,0.6234037280082703,-0.37074488401412964
1659026356244707300,10.282707275390624,9.7786865234375,0.6337076425552368,-0.3822132349014282
1659026356254377700,10.292377685546874,9.77749252319336,0.6462995409965515,-0.39156362414360046
1659026356264048000,10.302048095703125,9.776314735412598,0.6586782336235046,-0.400256872177124
1659026356273718500,10.311718505859375,9.775375366210938,0.6682037115097046,-0.4073221683502197
1659026356283388700,10.321388671875,9.774821281433105,0.6736917495727539,-0.4115762412548065
1659026356293059000,10.33105908203125,9.7746000289917,0.6756106019020081,-0.4136817753314972
1659026356302729500,10.3407294921875,9.774658203125,0.674911618232727,-0.41344067454338074
1659026356312400000,10.35039990234375,9.774843215942383,0.674069881439209,-0.4104457199573517
1659026356322070000,10.360070068359375,9.77498722076416,0.6749228239059448,-0.405555784702301
1659026356331740400,10.369740478515626,9.774971008300781,0.6786402463912964,-0.39971593022346497
1659026356341410800,10.379410888671876,9.774759292602539,0.6852074265480042,-0.39365530014038086
1659026356351081200,10.389081298828126,9.774384498596191,0.6936909556388855,-0.3880404233932495
1659026356360751600,10.398751708984374,9.77390193939209,0.7018593549728394,-0.38552889227867126
1659026356370421800,10.408421875,9.773356437683105,0.7071136236190796,-0.38971930742263794
1659026356380092200,10.418092041015624,9.772829055786133,0.7088095545768738,-0.3997363746166229
1659026356389762600,10.427762451171875,9.772459983825684,0.707583487033844,-0.41079720854759216
1659026356399433000,10.437432861328125,9.772326469421387,0.7047214508056641,-0.41881316900253296
1659026356409103000,10.44710302734375,9.772353172302246,0.7019239664077759,-0.42284518480300903
1659026356418773500,10.4567734375,9.77245807647705,0.700349748134613,-0.42303332686424255
1659026356428444000,10.46644384765625,9.77254867553711,0.7004201412200928,-0.4208323359489441
1659026356438114300,10.4761142578125,9.772516250610352,0.7018980979919434,-0.4191180467605591
1659026356447784700,10.48578466796875,9.772339820861816,0.7039309144020081,-0.41980502009391785
1659026356457455000,10.495455078125,9.771943092346191,0.7072741985321045,-0.42340004444122314
1659026356467125500,10.50512548828125,9.771411895751953,0.7119739055633545,-0.42778632044792175
1659026356476795600,10.514795654296876,9.770822525024414,0.7178595662117004,-0.4313831925392151
1659026356486466000,10.524466064453126,9.77017593383789,0.7241411805152893,-0.4354969561100006
1659026356496136400,10.534136474609374,9.769746780395508,0.7288618683815002,-0.43726032972335815
1659026356505806800,10.543806884765624,9.769651412963867,0.7316859364509583,-0.4346502423286438
1659026356515477000,10.55347705078125,9.769824981689453,0.733512818813324,-0.42762911319732666
1659026356525147400,10.5631474609375,9.770195960998535,0.7349742650985718,-0.4164883494377136
1659026356534817800,10.57281787109375,9.770706176757812,0.7364403605461121,-0.4016840159893036
1659026356544488200,10.58248828125,9.771209716796875,0.738791286945343,-0.3847476541996002
1659026356554158600,10.59215869140625,9.771583557128906,0.7424293160438538,-0.3678623139858246
1659026356563828700,10.601828857421875,9.771793365478516,0.746669352054596,-0.35345786809921265
1659026356573499100,10.6114990234375,9.771759033203125,0.7512111067771912,-0.34467753767967224
1659026356583169500,10.62116943359375,9.771506309509277,0.7556473612785339,-0.34215277433395386
1659026356592840000,10.63083984375,9.771147727966309,0.7595147490501404,-0.34377238154411316
1659026356602510000,10.640510009765626,9.770718574523926,0.7627359628677368,-0.3488397002220154
1659026356612180700,10.6501806640625,9.770292282104492,0.7645276784896851,-0.35675349831581116
1659026356621851000,10.659850830078126,9.769948959350586,0.7645567059516907,-0.3659569025039673
1659026356631521300,10.669521240234374,9.769682884216309,0.7629386186599731,-0.37631434202194214
1659026356641191700,10.679191650390624,9.769469261169434,0.7604092359542847,-0.38682451844215393
1659026356650862000,10.688862060546874,9.769196510314941,0.759299635887146,-0.39578649401664734
1659026356660532200,10.6985322265625,9.768798828125,0.7609624266624451,-0.4023608863353729
1659026356670202600,10.70820263671875,9.768227577209473,0.7655437588691711,-0.40750154852867126
1659026356679873000,10.717873046875,9.767542839050293,0.7720167636871338,-0.41167598962783813
1659026356689543400,10.72754345703125,9.766938209533691,0.778316080570221,-0.4141588509082794
1659026356699213800,10.7372138671875,9.766443252563477,0.7842246890068054,-0.41467687487602234
1659026356708884000,10.746884033203125,9.765783309936523,0.7948050498962402,-0.4100388288497925
1659026356718554400,10.756554443359375,9.76534366607666,0.8026325106620789,-0.40525367856025696
1659026356728224800,10.766224853515626,9.765059471130371,0.8074662685394287,-0.40249335765838623
1659026356737895200,10.775895263671876,9.764745712280273,0.8108077645301819,-0.40340328216552734
1659026356747565300,10.7855654296875,9.764337539672852,0.8145153522491455,-0.40578702092170715
1659026356757235700,10.795235595703126,9.763853073120117,0.8193934559822083,-0.40762385725975037
1659026356766906000,10.804906005859374,9.763313293457031,0.8257277607917786,-0.40776389837265015
1659026356776576500,10.814576416015624,9.76280689239502,0.832621693611145,-0.40586408972740173
1659026356786247000,10.824246826171875,9.762465476989746,0.8384883999824524,-0.40198811888694763
1659026356795917000,10.8339169921875,9.762258529663086,0.8435812592506409,-0.3963260054588318
1659026356805587700,10.843587646484375,9.761881828308105,0.8510215282440186,-0.3896278440952301
1659026356815257900,10.8532578125,9.761125564575195,0.862957239151001,-0.3822510540485382
1659026356824928300,10.86292822265625,9.760231971740723,0.8774060010910034,-0.37206587195396423
1659026356834598700,10.8725986328125,9.7593355178833,0.8925909996032715,-0.35918989777565
1659026356844269000,10.88226904296875,9.75855541229248,0.907135546207428,-0.34364596009254456
1659026356853939200,10.891939208984375,9.757850646972656,0.9208664298057556,-0.326726496219635
1659026356863609600,10.901609619140626,9.757149696350098,0.9338597655296326,-0.3103595972061157
1659026356873280000,10.911280029296876,9.75635814666748,0.9463366270065308,-0.29715707898139954
1659026356882950400,10.920950439453126,9.755276679992676,0.959625780582428,-0.28996405005455017
1659026356892620800,10.930620849609374,9.753983497619629,0.9734631776809692,-0.2873058021068573
1659026356902291000,10.940291015625,9.752386093139648,0.9891097545623779,-0.28813549876213074
1659026356911961300,10.94996142578125,9.750370979309082,1.0070408582687378,-0.2941446006298065
1659026356921631700,10.9596318359375,9.747838020324707,1.02764892578125,-0.3065377175807953
1659026356931302100,10.96930224609375,9.74486255645752,1.0499852895736694,-0.3249339759349823
1659026356940972300,10.97897216796875,9.740900993347168,1.0777842998504639,-0.3516029715538025
1659026356950642700,10.988642578125,9.73551082611084,1.1111946105957031,-0.39426809549331665
1659026356960313000,10.99831298828125,9.729165077209473,1.1425191164016724,-0.4564940631389618
1659026356969983500,11.0079833984375,9.722098350524902,1.1711719036102295,-0.528723955154419
1659026356979654000,11.01765380859375,9.710745811462402,1.195570468902588,-0.6651473045349121
1659026356989324000,11.027323974609375,9.685739517211914,1.2686665058135986,-0.8644780516624451
1659026356998994400,11.036994384765626,9.663872718811035,1.3365671634674072,-0.996768057346344
1659026357008664800,11.046664794921876,9.652700424194336,1.3590010404586792,-1.071855902671814
1659026357018335200,11.056335205078126,9.650802612304688,1.3326314687728882,-1.120927333831787
1659026357028005600,11.066005615234374,9.656699180603027,1.271955966949463,-1.1404731273651123
1659026357037676000,11.075676025390624,9.666674613952637,1.1997441053390503,-1.1341941356658936
1659026357047346200,11.08534619140625,9.678204536437988,1.1234029531478882,-1.1138694286346436
1659026357057016600,11.0950166015625,9.688806533813477,1.0527875423431396,-1.0904449224472046
1659026357066687000,11.10468701171875,9.696224212646484,1.0031384229660034,-1.0711400508880615
1659026357076357400,11.114357421875,9.700379371643066,0.9772087931632996,-1.0574045181274414
