time,seconds_elapsed,z,y,x
1659026346032817200,0.070817138671875,0.003665188793092966,-0.00946840364485979,0.03023780696094036
1659026346042487600,0.080487548828125,0.003359756199643016,-0.010384701192378998,0.030543239787220955
1659026346052158000,0.090157958984375,0.003665188793092966,-0.00946840364485979,0.032070402055978775
1659026346061828400,0.099828369140625,0.003359756199643016,-0.00946840364485979,0.031154103577136993
1659026346071498500,0.10949853515625,0.003359756199643016,-0.009773836471140385,0.032681263983249664
1659026346081169000,0.1191689453125,0.0030543238390237093,-0.00946840364485979,0.03237583488225937
1659026346090839300,0.12883935546875,0.004276053514331579,-0.010690134018659592,0.031154103577136993
1659026346100509700,0.138509765625,0.003665188793092966,-0.009773836471140385,0.03237583488225937
1659026346110180000,0.14818017578125,0.0027488914784044027,-0.009773836471140385,0.03145953640341759
1659026346119850500,0.1578505859375,0.003665188793092966,-0.008857538923621178,0.03298669680953026
1659026346129521000,0.16752099609375,0.003665188793092966,-0.007941242307424545,0.032681263983249664
1659026346139191000,0.17719091796875,0.003970621153712273,-0.009162971749901772,0.03145953640341759
1659026346148861400,0.186861328125,0.003665188793092966,-0.009162971749901772,0.032070402055978775
1659026346158531800,0.19653173828125,0.003359756199643016,-0.009773836471140385,0.029932374134659767
1659026346168202200,0.2062021484375,0.004276053514331579,-0.00946840364485979,0.030543239787220955
1659026346177872400,0.215872314453125,0.002443459117785096,-0.00946840364485979,0.03176496922969818
1659026346187542800,0.225542724609375,0.003359756199643016,-0.010079269297420979,0.03176496922969818
1659026346197213200,0.235213134765625,0.003665188793092966,-0.010079269297420979,0.0308486707508564
1659026346206883600,0.244883544921875,0.003970621153712273,-0.010079269297420979,0.03176496922969818
1659026346216554000,0.254553955078125,0.003665188793092966,-0.009162971749901772,0.032070402055978775
1659026346226224000,0.26422412109375,0.003359756199643016,-0.00946840364485979,0.03237583488225937
1659026346235894500,0.27389453125,0.003665188793092966,-0.009773836471140385,0.03176496922969818
1659026346245565000,0.28356494140625,0.003665188793092966,-0.008552107028663158,0.03176496922969818
1659026346255235300,0.2932353515625,0.003665188793092966,-0.009162971749901772,0.032681263983249664
1659026346264905700,0.30290576171875,0.003665188793092966,-0.008552107028663158,0.03298669680953026
1659026346274576000,0.312575927734375,0.003665188793092966,-0.008857538923621178,0.032070402055978775
1659026346284246500,0.32224658203125,0.003970621153712273,-0.009162971749901772,0.032070402055978775
1659026346293916700,0.331916748046875,0.0027488914784044027,-0.00946840364485979,0.032070402055978775
1659026346303587000,0.341587158203125,0.003665188793092966,-0.009773836471140385,0.03176496922969818
1659026346313257500,0.351257568359375,0.004276053514331579,-0.009162971749901772,0.030543239787220955
1659026346322927900,0.360927978515625,0.003665188793092966,-0.009162971749901772,0.031154103577136993
1659026346332598300,0.370598388671875,0.0030543238390237093,-0.00946840364485979,0.03237583488225937
1659026346342268400,0.380268310546875,0.004276053514331579,-0.009773836471140385,0.032070402055978775
1659026346351938800,0.389938720703125,0.003970621153712273,-0.00946840364485979,0.032070402055978775
1659026346361609200,0.399609130859375,0.003359756199643016,-0.010079269297420979,0.031154103577136993
1659026346371279600,0.409279541015625,0.003359756199643016,-0.009162971749901772,0.0308486707508564
1659026346380949800,0.41894970703125,0.003970621153712273,-0.009773836471140385,0.0308486707508564
1659026346390620200,0.4286201171875,0.003359756199643016,-0.009773836471140385,0.031154103577136993
1659026346400290600,0.43829052734375,0.003970621153712273,-0.00946840364485979,0.032681263983249664
1659026346409961000,0.4479609375,0.003359756199643016,-0.009162971749901772,0.03145953640341759
1659026346419631400,0.45763134765625,0.0030543238390237093,-0.009773836471140385,0.032070402055978775
1659026346429301500,0.467301513671875,0.004276053514331579,-0.009162971749901772,0.031154103577136993
1659026346438972200,0.47697216796875,0.003665188793092966,-0.009773836471140385,0.030543239787220955
1659026346448642300,0.486642333984375,0.003665188793092966,-0.009773836471140385,0.03145953640341759
1659026346458312700,0.496312744140625,0.003359756199643016,-0.009773836471140385,0.032070402055978775
1659026346467983000,0.505983154296875,0.003970621153712273,-0.009162971749901772,0.03176496922969818
1659026346477653500,0.515653564453125,0.003665188793092966,-0.00946840364485979,0.03298669680953026
1659026346487324000,0.525323974609375,0.0030543238390237093,-0.009162971749901772,0.03237583488225937
1659026346496994000,0.534994140625,0.003359756199643016,-0.009773836471140385,0.03298669680953026
1659026346506664400,0.54466455078125,0.004276053514331579,-0.010079269297420979,0.03145953640341759
1659026346516334800,0.5543349609375,0.003970621153712273,-0.009773836471140385,0.033597562462091446
1659026346526005200,0.564005126953125,0.003970621153712273,-0.010079269297420979,0.032681263983249664
1659026346535675400,0.57367529296875,0.004276053514331579,-0.009773836471140385,0.03176496922969818
1659026346545345800,0.583345703125,0.003665188793092966,-0.00946840364485979,0.032070402055978775
1659026346555016200,0.59301611328125,0.003359756199643016,-0.010079269297420979,0.032070402055978775
1659026346564686600,0.6026865234375,0.002443459117785096,-0.010079269297420979,0.03237583488225937
1659026346574357000,0.61235693359375,-0.014660755172371864,-0.010690134018659592,0.03023780696094036
1659026346584027100,0.622027099609375,-0.06841685622930527,-0.006108647678047419,0.0308486707508564
1659026346593697500,0.631697509765625,-0.16279546916484833,-0.010079269297420979,0.03237583488225937
1659026346603368000,0.641367919921875,-0.2672533392906189,-0.013439024798572063,0.03176496922969818
1659026346613038300,0.651038330078125,-0.3292561173439026,-0.016798781231045723,0.030543239787220955
1659026346622708700,0.660708740234375,-0.3503309488296509,-0.016187917441129684,0.031154103577136993
1659026346632379100,0.670379150390625,-0.3381136655807495,-0.011606430634856224,0.033597562462091446
1659026346642049500,0.680049560546875,-0.32162031531333923,-0.011606430634856224,0.034208428114652634
1659026346651719700,0.6897197265625,-0.28924447298049927,-0.010079269297420979,0.03390299528837204
1659026346661390000,0.69939013671875,-0.2629773020744324,-0.013133592903614044,0.035124726593494415
1659026346671060500,0.709060546875,-0.2263254076242447,-0.011911863461136818,0.03329212963581085
1659026346680731000,0.71873095703125,-0.16065743565559387,-0.01282816007733345,0.03237583488225937
1659026346690401000,0.728401123046875,-0.08949168771505356,-0.014660755172371864,0.03145953640341759
1659026346700071400,0.738071533203125,-0.04153880476951599,-0.01649334840476513,0.02932151034474373
1659026346709741800,0.747741943359375,-0.019242240116000175,-0.019242240116000175,0.028405211865901947
1659026346719412200,0.757412109375,-0.029932374134659767,-0.019242240116000175,0.026878049597144127
1659026346729082600,0.76708251953125,-0.08155044913291931,-0.02412915788590908,0.025045456364750862
1659026346738752800,0.776752685546875,-0.08765909820795059,-0.025350889191031456,0.0256563201546669
1659026346748423200,0.786423095703125,-0.06902772188186646,-0.0204639695584774,0.02260199747979641
1659026346758093600,0.796093505859375,-0.0513126403093338,-0.018631376326084137,0.024434590712189674
1659026346767764000,0.805763916015625,-0.02260199747979641,-0.019242240116000175,0.02412915788590908
1659026346777434400,0.815434326171875,0.0015271619195118546,-0.023212861269712448,0.024434590712189674
1659026346787104800,0.825104736328125,0.001221729558892548,-0.018631376326084137,0.023518294095993042
1659026346796775000,0.83477490234375,-0.011300998739898205,-0.018631376326084137,0.028405211865901947
1659026346806445300,0.8444453125,-0.02779434807598591,-0.01588248461484909,0.031154103577136993
1659026346816115700,0.85411572265625,-0.03848448023200035,-0.017104214057326317,0.029932374134659767
1659026346825786000,0.8637861328125,-0.07086031138896942,-0.014966187067329884,0.02871064469218254
1659026346835456500,0.87345654296875,-0.05528326332569122,-0.012522728182375431,0.03237583488225937
1659026346845126700,0.883126708984375,-0.01954767294228077,-0.00946840364485979,0.03390299528837204
1659026346854797000,0.892797119140625,0.003359756199643016,-0.008246674202382565,0.03390299528837204
1659026346864467500,0.902467529296875,0.002443459117785096,-0.005192350596189499,0.034208428114652634
1659026346874137900,0.912137939453125,0.0030543238390237093,-0.008246674202382565,0.033597562462091446
1659026346883808300,0.921808349609375,0.0015271619195118546,-0.010995565913617611,0.03023780696094036
1659026346893478400,0.931478515625,0.004886918235570192,-0.016187917441129684,0.028405211865901947
1659026346903148800,0.941148681640625,0.0054977829568088055,-0.019242240116000175,0.0256563201546669
1659026346912819200,0.950819091796875,0.011606430634856224,-0.022907428443431854,0.024740023538470268
1659026346922489600,0.960489501953125,0.025961752980947495,-0.025350889191031456,0.024434590712189674
1659026346932160000,0.970159912109375,0.04214967042207718,-0.011300998739898205,0.03023780696094036
1659026346941830100,0.979830078125,0.07116574794054031,0.006719512399286032,0.04428769648075104
1659026346951500500,0.98950048828125,0.11392628401517868,0.020158538594841957,0.04886918142437935
1659026346961171000,0.9991708984375,0.16157373785972595,0.021685699000954628,0.04978547990322113
1659026346970841300,1.00884130859375,0.19700388610363007,0.015271619893610477,0.043371398001909256
1659026346980511700,1.01851171875,0.19150610268115997,0.005803215317428112,0.03451386094093323
1659026346990182100,1.02818212890625,0.14752385020256042,-0.0054977829568088055,0.03023780696094036
1659026346999852300,1.037852294921875,0.09896009415388107,-0.01649334840476513,0.0256563201546669
1659026347009522700,1.047522705078125,0.05253437161445618,-0.02412915788590908,0.02260199747979641
1659026347019193000,1.057193115234375,0.00946840364485979,-0.02626718580722809,0.022296564653515816
1659026347028863500,1.066863525390625,0.003359756199643016,-0.01954767294228077,0.02718348242342472
1659026347038534000,1.076533935546875,0.0027488914784044027,-0.007635809946805239,0.034208428114652634
1659026347048204000,1.0862041015625,0.003665188793092966,0.0030543238390237093,0.03848448023200035
1659026347057874400,1.09587451171875,0.0030543238390237093,0,0.03756818547844887
1659026347067544800,1.105544921875,0.003359756199643016,-0.006414080038666725,0.032681263983249664
1659026347077215200,1.11521533203125,0.003970621153712273,-0.014660755172371864,0.029626941308379173
1659026347086885400,1.124885498046875,0.003665188793092966,-0.018631376326084137,0.02718348242342472
1659026347096555800,1.1345556640625,0.003359756199643016,-0.01649334840476513,0.028405211865901947
1659026347106226200,1.14422607421875,0.003359756199643016,-0.009162971749901772,0.03298669680953026
1659026347115896600,1.153896484375,0.003359756199643016,-0.000610864779446274,0.03695731982588768
1659026347125567000,1.16356689453125,0.003970621153712273,0.0030543238390237093,0.038789913058280945
1659026347135237000,1.173237060546875,0.0030543238390237093,0.000305432389723137,0.03695731982588768
1659026347144907800,1.18290771484375,0.003665188793092966,-0.005192350596189499,0.03451386094093323
1659026347154578000,1.192577880859375,0.004276053514331579,-0.008552107028663158,0.03176496922969818
1659026347164248300,1.202248291015625,0.003970621153712273,-0.01282816007733345,0.029932374134659767
1659026347173918700,1.211918701171875,0.003665188793092966,-0.014660755172371864,0.028099779039621353
1659026347183589000,1.221589111328125,0.0030543238390237093,-0.01435532234609127,0.029626941308379173
1659026347193259300,1.23125927734375,0.003665188793092966,-0.009773836471140385,0.031154103577136993
1659026347202929700,1.2409296875,0.003665188793092966,-0.006719512399286032,0.03390299528837204
1659026347212600000,1.25060009765625,0.004276053514331579,-0.005192350596189499,0.035735588520765305
1659026347222270500,1.2602705078125,0.003665188793092966,-0.005192350596189499,0.035735588520765305
1659026347231940900,1.26994091796875,0.003665188793092966,-0.009773836471140385,0.03176496922969818
1659026347241611000,1.279611083984375,0.0030543238390237093,-0.01802051067352295,0.02626718580722809
1659026347251281400,1.289281494140625,0.003970621153712273,-0.02107483521103859,0.024434590712189674
1659026347260951800,1.298951904296875,0.003359756199643016,-0.01802051067352295,0.026878049597144127
1659026347270622200,1.308622314453125,0.0030543238390237093,-0.00946840364485979,0.03237583488225937
1659026347280292600,1.318292724609375,0.003665188793092966,-0.000305432389723137,0.03848448023200035
1659026347289962800,1.327962646484375,0.0027488914784044027,0.0030543238390237093,0.03940077871084213
1659026347299633400,1.33763330078125,0.0021380267571657896,-0.0009162971982732415,0.03756818547844887
1659026347309303600,1.347303466796875,0.001832594396546483,-0.003359756199643016,0.03329212963581085
1659026347318974000,1.356973876953125,0.0021380267571657896,-0.007330377586185932,0.0308486707508564
1659026347328644400,1.366644287109375,0.0027488914784044027,-0.009162971749901772,0.030543239787220955
1659026347338314800,1.376314697265625,0.0030543238390237093,-0.009773836471140385,0.0308486707508564
1659026347347985000,1.38598486328125,0.0027488914784044027,-0.011606430634856224,0.031154103577136993
1659026347357655300,1.3956552734375,0.003665188793092966,-0.013439024798572063,0.02932151034474373
1659026347367325700,1.40532568359375,0.003359756199643016,-0.01954767294228077,0.02779434807598591
1659026347376996000,1.41499609375,0.004276053514331579,-0.021685699000954628,0.026878049597144127
1659026347386666500,1.42466650390625,0.003359756199643016,-0.013133592903614044,0.030543239787220955
1659026347396336600,1.434336669921875,0.0021380267571657896,-0.003359756199643016,0.03543015569448471
1659026347406007000,1.444007080078125,0.003359756199643016,-0.002443459117785096,0.03634645417332649
1659026347415677400,1.453677490234375,0.003970621153712273,-0.0054977829568088055,0.03329212963581085
1659026347425347800,1.463347900390625,0.003665188793092966,-0.010079269297420979,0.03023780696094036
1659026347435018200,1.473018310546875,0.003665188793092966,-0.013133592903614044,0.02871064469218254
1659026347444688400,1.4826884765625,0.003359756199643016,-0.012522728182375431,0.03023780696094036
1659026347454358800,1.49235888671875,0.0027488914784044027,-0.010995565913617611,0.031154103577136993
1659026347464029200,1.502029296875,0.003665188793092966,-0.011911863461136818,0.03176496922969818
1659026347473699600,1.511699462890625,0.0030543238390237093,-0.012522728182375431,0.030543239787220955
1659026347483369700,1.52136962890625,0.0030543238390237093,-0.011300998739898205,0.03145953640341759
1659026347493040400,1.531040283203125,0.002443459117785096,-0.008552107028663158,0.03329212963581085
1659026347502710500,1.54071044921875,0.0027488914784044027,-0.007330377586185932,0.034208428114652634
1659026347512381000,1.550380859375,0.003665188793092966,-0.007330377586185932,0.033597562462091446
1659026347522051300,1.56005126953125,0.003665188793092966,-0.007330377586185932,0.034208428114652634
1659026347531721700,1.5697216796875,0.003665188793092966,-0.008246674202382565,0.033597562462091446
1659026347541392100,1.57939208984375,0.0030543238390237093,-0.009162971749901772,0.033597562462091446
1659026347551062300,1.589062255859375,0.0027488914784044027,-0.009162971749901772,0.03145953640341759
1659026347560732700,1.598732666015625,0.003665188793092966,-0.010384701192378998,0.032070402055978775
1659026347570403000,1.608403076171875,0.002443459117785096,-0.011606430634856224,0.03176496922969818
1659026347580073500,1.618073486328125,0.0027488914784044027,-0.009162971749901772,0.03237583488225937
1659026347589743600,1.62774365234375,0.002443459117785096,-0.008857538923621178,0.032681263983249664
1659026347599414000,1.6374140625,0.0027488914784044027,-0.00946840364485979,0.032681263983249664
1659026347609084400,1.64708447265625,0.0030543238390237093,-0.008246674202382565,0.032681263983249664
1659026347618754800,1.6567548828125,0.003359756199643016,-0.007635809946805239,0.03298669680953026
1659026347628425200,1.66642529296875,0.002443459117785096,-0.007024944759905338,0.03481929376721382
1659026347638095400,1.676095458984375,0.002443459117785096,-0.007635809946805239,0.03451386094093323
1659026347647766000,1.68576611328125,0.0027488914784044027,-0.009773836471140385,0.03390299528837204
1659026347657436200,1.695436279296875,0.003359756199643016,-0.010384701192378998,0.03145953640341759
1659026347667106600,1.7051064453125,0.003970621153712273,-0.010995565913617611,0.032070402055978775
1659026347676777000,1.71477685546875,0.0015271619195118546,-0.017104214057326317,0.03145953640341759
1659026347686447400,1.724447265625,-0.007024944759905338,-0.02626718580722809,0.02779434807598591
1659026347696117500,1.734117431640625,-0.012217295356094837,-0.03756818547844887,0.02260199747979641
1659026347705788000,1.743787841796875,0.004581485874950886,-0.04917461425065994,0.015577051788568497
1659026347715458300,1.753458251953125,0.02260199747979641,-0.05222893878817558,0.00946840364485979
1659026347725128700,1.763128662109375,0.059864748269319534,-0.04367683082818985,0.01740964688360691
1659026347734799000,1.772799072265625,0.1640172004699707,-0.01954767294228077,0.032681263983249664
1659026347744469200,1.78246923828125,0.3139844834804535,-0.010995565913617611,0.03817904740571976
1659026347754139600,1.7921396484375,0.3943132162094116,-0.028405211865901947,0.03817904740571976
1659026347763810000,1.80181005859375,0.38698282837867737,-0.03756818547844887,0.03909534588456154
1659026347773480400,1.81148046875,0.36743515729904175,-0.0513126403093338,0.036651886999607086
1659026347783150800,1.82115087890625,0.38667741417884827,-0.06261363625526428,0.03756818547844887
1659026347792821000,1.830821044921875,0.4269944727420807,-0.08521563559770584,0.03940077871084213
1659026347802491400,1.840491455078125,0.4321868419647217,-0.0821613147854805,0.041844237595796585
1659026347812161800,1.850161865234375,0.40866854786872864,-0.043371398001909256,0.050090912729501724
1659026347821832200,1.859832275390625,0.4361574649810791,0.020769402384757996,0.0772743970155716
1659026347831502600,1.869502685546875,0.5088503360748291,0.0720820426940918,0.07544180005788803
1659026347841173000,1.879173095703125,0.5320632457733154,0.05925388261675835,0.04520399495959282
1659026347850843100,1.888843017578125,0.45875945687294006,0.025045456364750862,0.03329212963581085
1659026347860513500,1.898513427734375,0.3124573230743408,-0.007941242307424545,0.03145953640341759
1659026347870184000,1.908183837890625,0.16523891687393188,-0.04550942778587341,0.04001164436340332
1659026347879854300,1.917854248046875,0.06780599057674408,-0.07605266571044922,0.038789913058280945
1659026347889524700,1.927524658203125,0.034208428114652634,-0.09498947113752365,0.023823726922273636
1659026347899195000,1.93719482421875,0.04245510324835777,-0.10018182545900345,0.01435532234609127
1659026347908865300,1.946865234375,0.07910698652267456,-0.10476330667734146,0.010079269297420979
1659026347918535700,1.95653564453125,0.10140355676412582,-0.10873392969369888,0.004886918235570192
1659026347928206000,1.9662060546875,0.04886918142437935,-0.11972949653863907,-0.007941242307424545
1659026347937876500,1.97587646484375,-0.06047561392188072,-0.10934479534626007,-0.006108647678047419
1659026347947546600,1.985546630859375,-0.10995566099882126,-0.10201441496610641,0.0054977829568088055
1659026347957217000,1.995217041015625,-0.10934479534626007,-0.09834922850131989,0.015577051788568497
1659026347966887400,2.004887451171875,-0.10598503798246384,-0.07330377399921417,0.019242240116000175
1659026347976557800,2.014557861328125,-0.08552107214927673,-0.07971785217523575,0.016187917441129684
1659026347986228000,2.02422802734375,-0.07880155742168427,-0.11056652665138245,0.011911863461136818
1659026347995898400,2.0338984375,-0.09896009415388107,-0.13591741025447845,0.014660755172371864
1659026348005568800,2.04356884765625,-0.11942406743764877,-0.16065743565559387,0.02107483521103859
1659026348015239200,2.0532392578125,-0.1649334877729416,-0.2006690800189972,0.02718348242342472
1659026348024909600,2.06290966796875,-0.22357651591300964,-0.3222311735153198,0.011300998739898205
1659026348034580000,2.072580078125,-0.24373504519462585,-0.5317577719688416,-0.0030543238390237093
1659026348044250400,2.08225048828125,-0.2669478952884674,-0.7235693335533142,-0.014660755172371864
1659026348053920500,2.09192041015625,-0.3222311735153198,-0.880256175994873,-0.02779434807598591
1659026348063591000,2.1015908203125,-0.38850998878479004,-1.0855066776275635,-0.0461202897131443
1659026348073261300,2.11126123046875,-0.4581485986709595,-1.2974767684936523,-0.06994401663541794
1659026348082931700,2.120931640625,-0.5241219997406006,-1.4022401571273804,-0.08582650125026703
1659026348092601900,2.130601806640625,-0.5540543794631958,-1.3451242446899414,-0.08582650125026703
1659026348102272300,2.140272216796875,-0.5271763205528259,-1.1774418354034424,-0.06841685622930527
1659026348111942700,2.149942626953125,-0.435241162776947,-1.0103703737258911,-0.056199558079242706
1659026348121613000,2.159613037109375,-0.29626941680908203,-0.868955135345459,-0.04886918142437935
1659026348131283500,2.169283447265625,-0.1646280586719513,-0.7867938280105591,-0.03298669680953026
1659026348140953600,2.17895361328125,-0.09651663154363632,-0.6982184648513794,-0.02260199747979641
1659026348150624000,2.1886240234375,-0.08429934084415436,-0.61117023229599,-0.013439024798572063
1659026348160294400,2.19829443359375,-0.10231985151767731,-0.537255585193634,0.004276053514331579
1659026348169964800,2.20796484375,-0.09407317638397217,-0.38270679116249084,0.037262752652168274
1659026348179635200,2.21763525390625,-0.05711585655808449,-0.4303542375564575,-0.004276053514331579
1659026348189305600,2.2273056640625,-0.04550942778587341,-0.536339282989502,-0.09162971377372742
1659026348198976000,2.23697607421875,-0.0818558782339096,-0.4404335021972656,-0.09315688163042068
1659026348208646100,2.246646240234375,-0.13927717506885529,-0.25411975383758545,-0.13225223124027252
1659026348218316500,2.256316650390625,-0.2938259541988373,-0.49480047821998596,-0.18631376326084137
1659026348227987000,2.265987060546875,-0.5308414697647095,-0.7092140316963196,-0.2926042377948761
1659026348237657300,2.2756572265625,-0.6847794055938721,-0.5571087002754211,-0.27366742491722107
1659026348247327500,2.285327392578125,-0.7168498039245605,-0.3347539007663727,-0.1905898153781891
1659026348256998000,2.294997802734375,-0.5885682106018066,-0.13103049993515015,-0.08429934084415436
1659026348266668300,2.304668212890625,-0.4105011224746704,0.08338304609060287,0.04214967042207718
1659026348276338700,2.314338623046875,-0.2721402645111084,0.1899789422750473,0.12583814561367035
1659026348286009000,2.324009033203125,-0.17226386070251465,0.36254823207855225,0.21685700118541718
1659026348295679200,2.33367919921875,-0.09896009415388107,0.6139190793037415,0.31062474846839905
1659026348305349600,2.343349609375,-0.000610864779446274,0.685390293598175,0.364991694688797
1659026348315020000,2.35302001953125,0.024434590712189674,0.8790343999862671,0.4511236250400543
1659026348324690400,2.3626904296875,-0.014660755172371864,1.0760383605957031,0.5149590373039246
1659026348334360800,2.37236083984375,0.013439024798572063,1.3814706802368164,0.5192350745201111
1659026348344031000,2.382031005859375,0.09712749719619751,1.4813470840454102,0.44409868121147156
1659026348353701400,2.391701416015625,0.18325942754745483,1.5082250833511353,0.360410213470459
1659026348363371800,2.401371826171875,0.21716243028640747,1.5793908834457397,0.31520622968673706
1659026348373042200,2.411042236328125,0.1805105358362198,1.5650355815887451,0.3121519088745117
1659026348382712600,2.420712646484375,0.1178968995809555,0.9379828572273254,0.25350889563560486
1659026348392383000,2.430383056640625,0.0308486707508564,0.6139190793037415,0.23335035145282745
1659026348402053000,2.44005322265625,-0.12278381735086441,0.7226530313491821,0.26511532068252563
1659026348411723500,2.4497236328125,-0.23365578055381775,0.952949047088623,0.36254823207855225
1659026348421394000,2.459393798828125,-0.1802051067352295,1.1172716617584229,0.48533207178115845
1659026348431064300,2.469064208984375,-0.05711585655808449,1.1908808946609497,0.574212908744812
1659026348440734700,2.478734619140625,0.12064579129219055,1.1588104963302612,0.6291907429695129
1659026348450404900,2.48840478515625,0.2883281707763672,1.128878116607666,0.6698132157325745
1659026348460075300,2.4980751953125,0.39248061180114746,1.0684025287628174,0.6713404059410095
1659026348469745700,2.50774560546875,0.4673115611076355,0.9682206511497498,0.5623010396957397
1659026348479416000,2.517416015625,0.5210676789283752,1.00762140750885,0.44379326701164246
1659026348489086500,2.52708642578125,0.5406153202056885,1.017395257949829,0.30085089802742004
1659026348498756600,2.536756591796875,0.5103775262832642,0.9728021621704102,0.1282816082239151
1659026348508427000,2.546427001953125,0.45906487107276917,0.9294307827949524,-0.04459312930703163
1659026348518097400,2.556097412109375,0.3915643095970154,0.9071341753005981,-0.2107483446598053
1659026348527767800,2.565767822265625,0.29993459582328796,0.9001092314720154,-0.34636032581329346
1659026348537438200,2.575438232421875,0.17867794632911682,0.8286380767822266,-0.42882707715034485
1659026348547108600,2.585108642578125,0.003970621153712273,0.4013381600379944,-0.5549706816673279
1659026348556778800,2.59477880859375,-0.06597339361906052,-0.1853974610567093,-0.6517927050590515
1659026348566449200,2.60444921875,0.03237583488225937,-0.4883863925933838,-0.6123919486999512
1659026348576119600,2.61411962890625,0.13225223124027252,-0.6441569328308105,-0.5229002237319946
1659026348585790000,2.6237900390625,0.17256930470466614,-0.7388409376144409,-0.3946186602115631
1659026348595460400,2.63346044921875,0.16035200655460358,-0.7406735420227051,-0.250149130821228
1659026348605130500,2.643130615234375,0.08979712426662445,-0.639270007610321,-0.1640172004699707
1659026348614801000,2.65280078125,-0.015577051788568497,-0.49510589241981506,-0.15149445831775665
1659026348624471300,2.66247119140625,-0.13011419773101807,-0.43493571877479553,-0.16676609218120575
1659026348634141700,2.6721416015625,-0.23212862014770508,-0.517707884311676,-0.17348559200763702
1659026348643812000,2.68181201171875,-0.27550002932548523,-0.6059778332710266,-0.15668681263923645
1659026348653480700,2.691480712890625,-0.27030766010284424,-0.5885682106018066,-0.11392628401517868
1659026348663151000,2.701151123046875,-0.24770566821098328,-0.5106829404830933,-0.050090912729501724
1659026348672821500,2.710821533203125,-0.20250166952610016,-0.3738492429256439,0.026878049597144127
1659026348682492000,2.720491943359375,-0.11514800786972046,-0.11239911615848541,0.10323614627122879
1659026348692162000,2.730162109375,-0.0824667438864708,0.20891575515270233,0.15760311484336853
1659026348701832700,2.739832763671875,-0.09529490768909454,0.4929678738117218,0.21991132199764252
1659026348711502800,2.7495029296875,-0.14599667489528656,0.646905779838562,0.2577849328517914
1659026348721173200,2.75917333984375,-0.22235478460788727,0.5534434914588928,0.2263254076242447
1659026348730843600,2.76884375,-0.2568686306476593,0.2006690800189972,0.12400554865598679
1659026348740514000,2.77851416015625,-0.19272783398628235,-0.27519458532333374,-0.016798781231045723
1659026348750184400,2.788184326171875,-0.05436696484684944,-0.6035344004631042,-0.15790854394435883
1659026348759854600,2.7978544921875,0.03237583488225937,-0.7046325206756592,-0.2816086709499359
1659026348769525000,2.80752490234375,0.07055488228797913,-0.5977311730384827,-0.3329212963581085
1659026348779195400,2.8171953125,0.08277218043804169,-0.4517345130443573,-0.32559093832969666
1659026348788865800,2.82686572265625,0.05497783049941063,-0.4825831651687622,-0.29565855860710144
1659026348798536000,2.836535888671875,0.013744457624852657,-0.6753110289573669,-0.23457208275794983
1659026348808206300,2.846206298828125,-0.001832594396546483,-0.9859357476234436,-0.18264856934547424
1659026348817876700,2.855876708984375,0.029932374134659767,-1.3038908243179321,-0.19730933010578156
1659026348827547100,2.865547119140625,0.08826996386051178,-1.5296053886413574,-0.24434591829776764
1659026348837217500,2.875217529296875,0.11667517572641373,-1.6438370943069458,-0.3072649836540222
1659026348846887700,2.8848876953125,0.11362084746360779,-1.7006475925445557,-0.37323838472366333
1659026348856558300,2.894558349609375,0.07819069176912308,-1.7452406883239746,-0.42852163314819336
1659026348866228500,2.904228515625,0.04886918142437935,-1.6743803024291992,-0.4657844007015228
1659026348875899000,2.91389892578125,0.05070177838206291,-1.5650355815887451,-0.4831940531730652
1659026348885569300,2.9235693359375,0.09315688163042068,-1.5955787897109985,-0.4886918365955353
1659026348895239700,2.93323974609375,0.1649334877729416,-1.5916081666946411,-0.5009090900421143
1659026348904910000,2.94291015625,0.2214384824037552,-1.6215405464172363,-0.5152644515037537
1659026348914580200,2.952580322265625,0.25320345163345337,-1.627649188041687,-0.5213730931282043
1659026348924250600,2.962250732421875,0.2721402645111084,-1.6142101287841797,-0.5067123174667358
1659026348933921000,2.971921142578125,0.2730565667152405,-1.6606359481811523,-0.4569268524646759
1659026348943591400,2.98159130859375,0.2370155304670334,-1.6899573802947998,-0.37812530994415283
1659026348953261600,2.991261474609375,0.16187916696071625,-1.4523310661315918,-0.27488914132118225
1659026348962932000,3.000931884765625,0.07483093440532684,-0.9737184643745422,-0.19639302790164948
1659026348972602400,3.010602294921875,0.04214967042207718,-0.36254823207855225,-0.15577052533626556
1659026348982272800,3.020272705078125,0.08582650125026703,0.17348559200763702,-0.14110976457595825
1659026348991943200,3.029943115234375,0.18173226714134216,0.462424635887146,-0.17165300250053406
1659026349001613300,3.03961328125,0.30146175622940063,0.49113526940345764,-0.24251331388950348
1659026349011283700,3.04928369140625,0.40347617864608765,0.3430005609989166,-0.2984074354171753
1659026349020954000,3.0589541015625,0.4413498044013977,0.1438586562871933,-0.2886336147785187
1659026349030624500,3.06862451171875,0.3484983444213867,0.06933315098285675,-0.2764163017272949
1659026349040295000,3.078294921875,0.16249002516269684,0.14538581669330597,-0.26939135789871216
1659026349049965300,3.08796533203125,-0.03390299528837204,0.27916520833969116,-0.24709481000900269
1659026349059635700,3.0976357421875,-0.14508038759231567,0.4016436040401459,-0.1802051067352295
1659026349069305900,3.107305908203125,-0.13744457066059113,0.45998117327690125,-0.11148282140493393
1659026349078976300,3.116976318359375,-0.07330377399921417,0.3500255048274994,-0.04978547990322113
1659026349088646700,3.126646728515625,-0.029626941308379173,0.08979712426662445,0.020158538594841957
1659026349098317000,3.136317138671875,-0.028099779039621353,-0.25900667905807495,0.0925460159778595
1659026349107987500,3.145987548828125,-0.011911863461136818,-0.5965094566345215,0.17073670029640198
1659026349117657600,3.15565771484375,0.04367683082818985,-0.794124186038971,0.23212862014770508
1659026349127328000,3.165327880859375,0.1078176349401474,-0.7922916412353516,0.2874118685722351
1659026349136998400,3.174998291015625,0.13713914155960083,-0.5876519083976746,0.3185659945011139
1659026349146668800,3.184668701171875,0.1493564397096634,-0.20402882993221283,0.31031930446624756
1659026349156339000,3.1943388671875,0.1847866028547287,0.22418737411499023,0.2932150959968567
1659026349166009300,3.20400927734375,0.23976442217826843,0.5699368119239807,0.29443681240081787
1659026349175679700,3.2136796875,0.281914085149765,0.8118392825126648,0.32070401310920715
1659026349185350100,3.22335009765625,0.2813032269477844,0.9544762372970581,0.35613417625427246
1659026349195020500,3.2330205078125,0.23976442217826843,0.9718858599662781,0.3961458206176758
1659026349204691000,3.24269091796875,0.17745621502399445,0.8649845123291016,0.4511236250400543
1659026349214361300,3.252361328125,0.10048725455999374,0.6685914993286133,0.5070177912712097
1659026349224031500,3.262031494140625,0.014660755172371864,0.4529562294483185,0.5671879649162292
1659026349233702000,3.271701904296875,-0.07330377399921417,0.2993237376213074,0.6441569328308105
1659026349243372300,3.281372314453125,-0.15179990231990814,0.25350889563560486,0.7339540123939514
1659026349253042700,3.291042724609375,-0.19272783398628235,0.33719736337661743,0.8164207935333252
1659026349262713000,3.300713134765625,-0.19883649051189423,0.5195404887199402,0.8579595685005188
1659026349272383200,3.31038330078125,-0.1692095398902893,0.674700140953064,0.8442151546478271
1659026349282053600,3.3200537109375,-0.10231985151767731,0.711046576499939,0.7812960743904114
1659026349291724000,3.32972412109375,-0.01893680728971958,0.665842592716217,0.6765327453613281
1659026349301394400,3.33939453125,0.057726722210645676,0.5775726437568665,0.5494728684425354
1659026349311064800,3.34906494140625,0.11484257876873016,0.49144071340560913,0.435241162776947
1659026349320735000,3.35873486328125,0.14019346237182617,0.4361574649810791,0.34177884459495544
1659026349330405400,3.3684052734375,0.1282816082239151,0.40927940607070923,0.25350889563560486
1659026349340075800,3.37807568359375,0.09376774728298187,0.3854556679725647,0.1692095398902893
1659026349349746200,3.38774609375,0.0665842592716217,0.36621344089508057,0.1130099818110466
1659026349359416300,3.397416259765625,0.06780599057674408,0.38759371638298035,0.08491020649671555
1659026349369087000,3.4070869140625,0.1026252806186676,0.4172206521034241,0.09101885557174683
1659026349378757000,3.416757080078125,0.14813470840454102,0.41233372688293457,0.13011419773101807
1659026349388427500,3.426427490234375,0.18295399844646454,0.34238970279693604,0.2107483446598053
1659026349398098000,3.436097900390625,0.19150610268115997,0.20799945294857025,0.3029889166355133
1659026349407768300,3.445768310546875,0.15118902921676636,0.004581485874950886,0.3848448097705841
1659026349417438700,3.455438720703125,0.07971785217523575,-0.20616686344146729,0.4468475878238678
1659026349427108900,3.46510888671875,0.000610864779446274,-0.3384190797805786,0.4612029194831848
1659026349436779300,3.474779296875,-0.05894844979047775,-0.3597993552684784,0.42974337935447693
1659026349446449700,3.48444970703125,-0.08857539296150208,-0.3176496922969818,0.3643808364868164
1659026349456120000,3.4941201171875,-0.08582650125026703,-0.21991132199764252,0.2935205399990082
1659026349465790500,3.50379052734375,-0.05100720748305321,-0.09529490768909454,0.24923282861709595
1659026349475460600,3.513460693359375,0.008857538923621178,0.0021380267571657896,0.23976442217826843
1659026349485131000,3.523131103515625,0.08368847519159317,0.02779434807598591,0.25442516803741455
1659026349494801400,3.532801513671875,0.12553271651268005,-0.010079269297420979,0.2614501118659973
1659026349504471800,3.542471923828125,0.12034036219120026,-0.09590577334165573,0.24892739951610565
1659026349514142000,3.552141845703125,0.09865466505289078,-0.18753549456596375,0.22876885533332825
1659026349523812600,3.5618125,0.06475166976451874,-0.2415970265865326,0.21227550506591797
1659026349533482800,3.571482666015625,0.009162971749901772,-0.22815799713134766,0.20219624042510986
1659026349543153200,3.581153076171875,-0.029626941308379173,-0.1282816082239151,0.2306014597415924
1659026349552823600,3.590823486328125,-0.031154103577136993,0.017104214057326317,0.3017672002315521
1659026349562494000,3.600493896484375,-0.021380268037319183,0.15515965223312378,0.3759872615337372
1659026349572164400,3.610164306640625,-0.013133592903614044,0.2706131041049957,0.44440412521362305
1659026349581834500,3.61983447265625,-0.01282816007733345,0.323452889919281,0.5054906010627747
1659026349591505000,3.6295048828125,-0.011606430634856224,0.2629773020744324,0.5216785073280334
1659026349601175300,3.63917529296875,-0.018631376326084137,0.20861032605171204,0.5103775262832642
1659026349610845700,3.648845703125,-0.03543015569448471,0.14141519367694855,0.4563159942626953
1659026349620516000,3.65851611328125,-0.034208428114652634,0.03237583488225937,0.36651885509490967
1659026349630186200,3.668186279296875,-0.03451386094093323,-0.07971785217523575,0.2513708472251892
1659026349639856600,3.677856689453125,-0.06322450190782547,-0.12583814561367035,0.1130099818110466
1659026349649527000,3.687527099609375,-0.06841685622930527,-0.09590577334165573,-0.0054977829568088055
1659026349659197400,3.697197509765625,-0.047036588191986084,-0.023823726922273636,-0.07299833744764328
1659026349668867800,3.706867919921875,-0.023518294095993042,0.05528326332569122,-0.07880155742168427
1659026349678538000,3.7165380859375,-0.01954767294228077,0.08613193035125732,-0.015577051788568497
1659026349688208400,3.72620849609375,-0.03817904740571976,0.0616973415017128,0.10445787757635117
1659026349697878800,3.735878662109375,-0.08338304609060287,0.01802051067352295,0.24037529528141022
1659026349707549200,3.745549072265625,-0.1288924664258957,-0.03634645417332649,0.33169957995414734
1659026349717219600,3.755219482421875,-0.14233149588108063,-0.10323614627122879,0.37629270553588867
1659026349726890000,3.764889892578125,-0.12217295914888382,-0.20189081132411957,0.38850998878479004
1659026349736560000,3.77456005859375,-0.08368847519159317,-0.30573782324790955,0.35705047845840454
1659026349746230500,3.78423046875,-0.03329212963581085,-0.3546070158481598,0.282524973154068
1659026349755901000,3.79390087890625,0.01954767294228077,-0.35124725103378296,0.19700388610363007
1659026349765571300,3.8035712890625,0.04764745384454727,-0.29138249158859253,0.11728604137897491
1659026349775241700,3.81324169921875,0.054672397673130035,-0.13011419773101807,0.08307760953903198
1659026349784912000,3.822911865234375,0.04428769648075104,0.11331541836261749,0.10965022444725037
1659026349794582300,3.832582275390625,0.011606430634856224,0.35216355323791504,0.1798996776342392
1659026349804252700,3.842252685546875,-0.032070402055978775,0.5479456782341003,0.2565632164478302
1659026349813923000,3.851923095703125,-0.06780599057674408,0.6963858604431152,0.3066541254520416
1659026349823593500,3.861593505859375,-0.08674279600381851,0.7550288438796997,0.3185659945011139
1659026349833263600,3.871263671875,-0.1029307171702385,0.7330377101898193,0.2922987937927246
1659026349842934300,3.880934326171875,-0.12431098520755768,0.6976075768470764,0.26969680190086365
1659026349852604400,3.8906044921875,-0.14996729791164398,0.674700140953064,0.287106454372406
1659026349862274800,3.90027490234375,-0.16310089826583862,0.7177661061286926,0.3484983444213867
1659026349871945200,3.9099453125,-0.17256930470466614,0.7996219992637634,0.40225446224212646
1659026349881615600,3.91961572265625,-0.19272783398628235,0.8359684348106384,0.41935867071151733
1659026349891285800,3.92928564453125,-0.21410810947418213,0.8103121519088745,0.35735589265823364
1659026349900956200,3.9389560546875,-0.22937972843647003,0.8271108865737915,0.19761475920677185
1659026349910626600,3.94862646484375,-0.26878049969673157,0.9370665550231934,-0.060781046748161316
1659026349920297000,3.958296875,-0.3133736252784729,0.971580445766449,-0.3084867000579834
1659026349929967400,3.96796728515625,-0.3426951467990875,0.887891948223114,-0.4404335021972656
1659026349939637500,3.977637451171875,-0.39278605580329895,0.850934624671936,-0.43463030457496643
1659026349949308000,3.987307861328125,-0.4224129915237427,0.879339873790741,-0.27916520833969116
1659026349958978300,3.996978271484375,-0.4053087830543518,0.8155044913291931,-0.05222893878817558
1659026349968648700,4.006648681640625,-0.42424559593200684,0.7602212429046631,0.11209368705749512
1659026349978319000,4.016319091796875,-0.48991355299949646,0.8796452879905701,0.18692462146282196
1659026349987989200,4.0259892578125,-0.5558869242668152,1.0286962985992432,0.1649334877729416
1659026349997660000,4.035659912109375,-0.5861247777938843,1.0571014881134033,0.0720820426940918
1659026350007330000,4.045330078125,-0.5815432667732239,0.943175196647644,-0.016187917441129684
1659026350017000400,4.05500048828125,-0.4969384968280792,0.7690787315368652,0.007635809946805239
1659026350026670800,4.0646708984375,-0.43279770016670227,0.685084879398346,0.03634645417332649
1659026350036341200,4.07434130859375,-0.4407389461994171,0.8344413042068481,-0.012522728182375431
1659026350046011600,4.08401171875,-0.42332929372787476,1.0158681869506836,-0.08949168771505356
1659026350055681800,4.093681884765625,-0.31581708788871765,1.1117738485336304,-0.21899501979351044
1659026350065352200,4.103352294921875,-0.17531819641590118,1.156977891921997,-0.3741546869277954
1659026350075022600,4.113022705078125,-0.05070177838206291,1.1398736238479614,-0.4584540128707886
1659026350084693000,4.12269287109375,0.03543015569448471,1.0867284536361694,-0.4422661066055298
1659026350094363400,4.13236328125,0.07544180005788803,0.9993748068809509,-0.34208428859710693
1659026350104033500,4.142033447265625,0.04917461425065994,0.82436203956604,-0.16768237948417664
1659026350113704000,4.151703857421875,-0.05589412897825241,0.5980366468429565,0.01435532234609127
1659026350123374300,4.161374267578125,-0.21502439677715302,0.3274235129356384,0.15271618962287903
1659026350133044700,4.171044677734375,-0.37354379892349243,0.06841685622930527,0.21441353857517242
1659026350142715000,4.18071484375,-0.4734202027320862,-0.13775001466274261,0.18845178186893463
1659026350152385300,4.19038525390625,-0.5057960152626038,-0.29993459582328796,0.0821613147854805
1659026350162055700,4.2000556640625,-0.44348782300949097,-0.38301220536231995,-0.023212861269712448
1659026350171726000,4.20972607421875,-0.2669478952884674,-0.42821621894836426,-0.0409279391169548
1659026350181396500,4.219396484375,-0.06352993845939636,-0.4098902642726898,-0.011911863461136818
1659026350191067000,4.22906689453125,0.04734202101826668,-0.3750709891319275,-0.023823726922273636
1659026350200737300,4.2387373046875,0.025045456364750862,-0.39797839522361755,-0.08002328872680664
1659026350210407400,4.248407470703125,-0.10720676928758621,-0.5589412450790405,-0.16615521907806396
1659026350220077800,4.258077880859375,-0.2919933497905731,-0.8182533979415894,-0.2981020212173462
1659026350229748200,4.267748291015625,-0.44837474822998047,-1.1181880235671997,-0.4309650957584381
1659026350239418600,4.277418701171875,-0.5247328281402588,-1.416290044784546,-0.5054906010627747
1659026350249089000,4.287089111328125,-0.4761691093444824,-1.618180751800537,-0.5061014890670776
1659026350258759200,4.29675927734375,-0.32528549432754517,-1.6704097986221313,-0.44959646463394165
1659026350268429600,4.3064296875,-0.1279761642217636,-1.6759074926376343,-0.3249800503253937
1659026350278100000,4.316099853515625,0.06200277432799339,-1.6340632438659668,-0.14294235408306122
1659026350287770400,4.325770263671875,0.164322629570961,-1.4651591777801514,0.010079269297420979
1659026350297440800,4.335440673828125,0.1893680840730667,-1.1520910263061523,0.09101885557174683
1659026350307111000,4.34511083984375,0.16004657745361328,-0.7373138070106506,0.13011419773101807
1659026350316781300,4.35478125,0.08949168771505356,-0.3582721948623657,0.13591741025447845
1659026350326451700,4.36445166015625,0.031154103577136993,-0.12431098520755768,0.1594357043504715
1659026350336122000,4.3741220703125,0.000610864779446274,-0.07147117704153061,0.23915356397628784
1659026350345792500,4.38379248046875,-0.014966187067329884,-0.14630211889743805,0.3659079968929291
1659026350355463000,4.393462890625,-0.008552107028663158,-0.23029601573944092,0.49571678042411804
1659026350365133000,4.403133056640625,0.029016077518463135,-0.2370155304670334,0.5891790986061096
1659026350374803500,4.412803466796875,0.09621120244264603,-0.16310089826583862,0.6133082509040833
1659026350384473900,4.422473876953125,0.15118902921676636,-0.047952886670827866,0.5534434914588928
1659026350394144300,4.432144287109375,0.16798780858516693,0.026572618633508682,0.4511236250400543
1659026350403814700,4.441814697265625,0.168904110789299,-0.009162971749901772,0.3341430425643921
1659026350413484800,4.45148486328125,0.20799945294857025,-0.12950333952903748,0.21380266547203064
1659026350423155200,4.4611552734375,0.2935205399990082,-0.2813032269477844,0.11209368705749512
1659026350432825600,4.47082568359375,0.38240134716033936,-0.4257727563381195,0.036651886999607086
1659026350442496000,4.48049609375,0.41783151030540466,-0.48991355299949646,-0.008857538923621178
1659026350452166400,4.49016650390625,0.3750709891319275,-0.5204567909240723,-0.025961752980947495
1659026350461836500,4.49983642578125,0.24953825771808624,-0.56382817029953,-0.033597562462091446
1659026350471507000,4.5095068359375,0.08399390429258347,-0.5641336441040039,-0.03329212963581085
1659026350481177300,4.51917724609375,-0.051618073135614395,-0.5024362802505493,-0.0009162971982732415
1659026350490847700,4.52884765625,-0.12186752259731293,-0.41813695430755615,0.051618073135614395
1659026350500518100,4.53851806640625,-0.13164135813713074,-0.3692677617073059,0.10720676928758621
1659026350510188500,4.5481884765625,-0.12736530601978302,-0.38179048895835876,0.1542433500289917
1659026350519859000,4.55785888671875,-0.1432477980852127,-0.4218021333217621,0.1847866028547287
1659026350529529000,4.567529052734375,-0.17898337543010712,-0.4419606626033783,0.18570289015769958
1659026350539199500,4.577199462890625,-0.20647229254245758,-0.46364638209342957,0.16187916696071625
1659026350548870000,4.586869873046875,-0.20219624042510986,-0.5015199780464172,0.12217295914888382
1659026350558540300,4.596540283203125,-0.1744018942117691,-0.5198459029197693,0.07819069176912308
1659026350568210700,4.606210693359375,-0.13164135813713074,-0.4324922561645508,0.03848448023200035
1659026350577880800,4.615880859375,-0.05955931544303894,-0.27488914132118225,0.01893680728971958
1659026350587551200,4.62555126953125,0.035124726593494415,-0.06230820715427399,0.04581485688686371
1659026350597221600,4.6352216796875,0.10415244847536087,0.1701258420944214,0.08552107214927673
1659026350606892000,4.64489208984375,0.15760311484336853,0.35766133666038513,0.13194678723812103
1659026350616562200,4.654562255859375,0.2000582218170166,0.43982264399528503,0.19639302790164948
1659026350626232600,4.664232666015625,0.21746785938739777,0.4318813979625702,0.24770566821098328
1659026350635903000,4.673903076171875,0.2162461280822754,0.3842339515686035,0.26969680190086365
1659026350645573400,4.683573486328125,0.20799945294857025,0.33505934476852417,0.26878049969673157
1659026350655243800,4.693243896484375,0.19181154668331146,0.3087921440601349,0.2522871494293213
1659026350664914000,4.702913818359375,0.17226386070251465,0.32070401310920715,0.2370155304670334
1659026350674584600,4.71258447265625,0.16340632736682892,0.3857611119747162,0.23182319104671478
1659026350684254700,4.722254638671875,0.17592905461788177,0.47006043791770935,0.24404047429561615
1659026350693925000,4.731925048828125,0.19211697578430176,0.5195404887199402,0.25809037685394287
1659026350703595500,4.741595458984375,0.2009745091199875,0.5109884142875671,0.2672533392906189
1659026350713266000,4.751265869140625,0.1997527778148651,0.4657844007015228,0.2776380479335785
1659026350722936300,4.760936279296875,0.18295399844646454,0.4740310609340668,0.2764163017272949
1659026350732606500,4.7706064453125,0.1646280586719513,0.5445859432220459,0.2611446976661682
1659026350742276900,4.78027685546875,0.1490510106086731,0.6209440231323242,0.23793183267116547
1659026350751947300,4.789947265625,0.13164135813713074,0.6548470258712769,0.20311254262924194
1659026350761617700,4.79961767578125,0.11484257876873016,0.6273581385612488,0.15638138353824615
1659026350771288000,4.8092880859375,0.12614357471466064,0.5555815100669861,0.1127045527100563
1659026350780958200,4.818958251953125,0.18295399844646454,0.49602219462394714,0.07910698652267456
1659026350790628600,4.828628662109375,0.2706131041049957,0.5033525824546814,0.061391908675432205
1659026350800299000,4.838299072265625,0.36132651567459106,0.5836812853813171,0.05253437161445618
1659026350809969400,4.847969482421875,0.42974337935447693,0.7006618976593018,0.047036588191986084
1659026350819639800,4.857639892578125,0.44868019223213196,0.7947350740432739,0.05955931544303894
1659026350829310200,4.867310302734375,0.4260781705379486,0.7959567904472351,0.10354158282279968
1659026350838980400,4.87698046875,0.3857611119747162,0.7318159937858582,0.15729768574237823
1659026350848650800,4.886650634765625,0.33231043815612793,0.6169734001159668,0.1957821547985077
1659026350858321200,4.896321044921875,0.2660316228866577,0.471587598323822,0.23762640357017517
1659026350867991600,4.905991455078125,0.2049451321363449,0.3335321843624115,0.2684750556945801
1659026350877662000,4.915661865234375,0.16676609218120575,0.2516762912273407,0.28008151054382324
1659026350887332000,4.92533203125,0.17531819641590118,0.2919933497905731,0.2861901521682739
1659026350897002500,4.93500244140625,0.23304490745067596,0.4257727563381195,0.30146175622940063
1659026350906673000,4.9446728515625,0.32192572951316833,0.5677987933158875,0.3335321843624115
1659026350916343300,4.95434326171875,0.40286532044410706,0.6133082509040833,0.3805687427520752
1659026350926013700,4.964013671875,0.4514290690422058,0.5809323787689209,0.3995055556297302
1659026350935683800,4.973683837890625,0.45875945687294006,0.5623010396957397,0.39736753702163696
1659026350945354200,4.983354248046875,0.3607156574726105,0.5088503360748291,0.37171122431755066
1659026350955024600,4.993024658203125,0.17562362551689148,0.3539961278438568,0.34116798639297485
1659026350964695000,5.002695068359375,0.02107483521103859,0.15729768574237823,0.3277289569377899
1659026350974365400,5.012365478515625,-0.03298669680953026,0.07360920310020447,0.3384190797805786
1659026350984035800,5.022035888671875,0.006108647678047419,0.12614357471466064,0.33505934476852417
1659026350993706200,5.031706298828125,0.09101885557174683,0.22510367631912231,0.3032943606376648
1659026351003376400,5.04137646484375,0.1695149689912796,0.29626941680908203,0.2669478952884674
1659026351013046800,5.051046875,0.20433427393436432,0.3448331654071808,0.23426663875579834
1659026351022717200,5.06071728515625,0.20250166952610016,0.43860089778900146,0.2211330533027649
1659026351032387600,5.0703876953125,0.19303326308727264,0.6053670048713684,0.2715294063091278
1659026351042058000,5.08005810546875,0.16340632736682892,0.7709113359451294,0.3594939112663269
1659026351051728100,5.08972802734375,0.05925388261675835,0.7660244107246399,0.3949240744113922
1659026351061398500,5.0993984375,-0.07330377399921417,0.5665770769119263,0.3130682110786438
1659026351071069000,5.10906884765625,-0.13500112295150757,0.2889390289783478,0.14813470840454102
1659026351080739300,5.1187392578125,-0.13652828335762024,0.015271619893610477,-0.04734202101826668
1659026351090409700,5.12840966796875,-0.13591741025447845,-0.19944734871387482,-0.19853104650974274
1659026351100079900,5.138079833984375,-0.12980876863002777,-0.32620179653167725,-0.23915356397628784
1659026351109750300,5.147750244140625,-0.10445787757635117,-0.37720900774002075,-0.16584978997707367
1659026351119420700,5.157420654296875,-0.06933315098285675,-0.30543237924575806,-0.026572618633508682
1659026351129091000,5.167091064453125,-0.09682206809520721,-0.18203771114349365,0.09865466505289078
1659026351138761500,5.176761474609375,-0.1585194170475006,-0.14110976457595825,0.15790854394435883
1659026351148432000,5.186431884765625,-0.12675444781780243,-0.14294235408306122,0.13164135813713074
1659026351158102000,5.19610205078125,0.04886918142437935,-0.0977383628487587,0.034208428114652634
1659026351167772400,5.2057724609375,0.23793183267116547,0.014660755172371864,-0.06597339361906052
1659026351177442800,5.21544287109375,0.3237583339214325,0.27091851830482483,-0.12431098520755768
1659026351187113200,5.22511328125,0.2525925934314728,0.6679806113243103,-0.15179990231990814
1659026351196783600,5.23478369140625,0.0818558782339096,1.0754274129867554,-0.15790854394435883
1659026351206453800,5.244453857421875,-0.05436696484684944,1.3069452047348022,-0.15302163362503052
1659026351216124200,5.254124267578125,-0.07880155742168427,1.2877029180526733,-0.14996729791164398
1659026351225794600,5.263794677734375,-0.006719512399286032,1.1530072689056396,-0.13988803327083588
1659026351235465000,5.27346484375,0.08888082206249237,1.1242966651916504,-0.08124501258134842
1659026351245135400,5.28313525390625,0.10567960888147354,1.2971713542938232,0.010079269297420979
1659026351254805500,5.292805419921875,-0.011300998739898205,1.5589269399642944,0.0925460159778595
1659026351264476000,5.302475830078125,-0.2306014597415924,1.786779522895813,0.11514800786972046
1659026351274146300,5.312146240234375,-0.48441576957702637,1.8735222816467285,0.004276053514331579
1659026351283816700,5.321816650390625,-0.6869174242019653,1.7678426504135132,-0.18112140893936157
1659026351293487000,5.331487060546875,-0.7654135823249817,1.5598431825637817,-0.33139413595199585
1659026351303157500,5.341157470703125,-0.7324268817901611,1.1951569318771362,-0.40775224566459656
1659026351312828000,5.350827880859375,-0.6823359727859497,0.695164144039154,-0.46395179629325867
1659026351322498000,5.360498046875,-0.6414080262184143,0.15638138353824615,-0.5241219997406006
1659026351332168400,5.37016845703125,-0.5962040424346924,-0.35094180703163147,-0.6230821013450623
1659026351341838800,5.3798388671875,-0.5485565662384033,-0.713184654712677,-0.8213077187538147
1659026351351509200,5.38950927734375,-0.49021899700164795,-0.9862411618232727,-1.1117738485336304
1659026351361179600,5.3991796875,-0.4214966893196106,-1.2345577478408813,-1.453247308731079
1659026351370849800,5.408849853515625,-0.33658650517463684,-1.359174132347107,-1.7733404636383057
1659026351380520200,5.418520263671875,-0.26542073488235474,-1.477987289428711,-1.96148681640625
1659026351390190600,5.428190673828125,-0.20799945294857025,-1.6203187704086304,-1.9486587047576904
1659026351399861000,5.437861083984375,-0.11636973917484283,-1.7760893106460571,-1.7177517414093018
1659026351409531400,5.447531494140625,-0.08521563559770584,-1.986532211303711,-1.395520567893982
1659026351419201500,5.457201416015625,-0.23182319104671478,-2.257145404815674,-1.1212422847747803
1659026351428872000,5.466871826171875,-0.3341430425643921,-2.3649630546569824,-0.8930842876434326
1659026351438542300,5.476542236328125,-0.33169957995414734,-2.475224018096924,-0.8405499458312988
1659026351448212700,5.486212646484375,-0.23304490745067596,-2.626413106918335,-0.9404263496398926
1659026351457883100,5.495883056640625,-0.06017018109560013,-2.7281219959259033,-1.0042617321014404
1659026351467553500,5.505553466796875,0.15699224174022675,-2.657567262649536,-0.9272927641868591
1659026351477223700,5.5152236328125,0.32009315490722656,-2.4236059188842773,-0.8216131329536438
1659026351486894000,5.52489404296875,0.370184063911438,-1.9853105545043945,-0.72173672914505
1659026351496564500,5.534564453125,0.36254823207855225,-1.36772620677948,-0.6062833070755005
1659026351506235000,5.54423486328125,0.3298669755458832,-0.8295543789863586,-0.5323686599731445
1659026351515905300,5.5539052734375,0.29962918162345886,-0.4874700903892517,-0.4838049113750458
1659026351525575400,5.563575439453125,0.2254091054201126,-0.3231474757194519,-0.42821621894836426
1659026351535245800,5.573245849609375,0.10323614627122879,-0.24953825771808624,-0.3689623177051544
1659026351544916200,5.582916259765625,-0.0204639695584774,-0.23793183267116547,-0.3555232882499695
1659026351554586600,5.592586669921875,-0.05406153202056885,-0.17837251722812653,-0.36224281787872314
1659026351564257000,5.602257080078125,-0.06383536756038666,-0.15760311484336853,-0.43004879355430603
1659026351573927200,5.61192724609375,-0.021685699000954628,0.001221729558892548,-0.5189296007156372
1659026351583597600,5.62159765625,0.0717766135931015,0.32039856910705566,-0.5338957905769348
1659026351593268000,5.63126806640625,0.14263692498207092,0.5125155448913574,-0.5247328281402588
1659026351602938400,5.6409384765625,0.18356487154960632,0.5986474752426147,-0.47006043791770935
1659026351612608800,5.65060888671875,0.2009745091199875,0.6750055551528931,-0.2910770773887634
1659026351622279200,5.660279052734375,0.12950333952903748,0.7660244107246399,-0.10690133273601532
1659026351631949600,5.669949462890625,0.035124726593494415,0.8717040419578552,0.07513637095689774
1659026351641619700,5.67961962890625,-0.05436696484684944,0.9972367286682129,0.24037529528141022
1659026351651290000,5.6892900390625,-0.15546508133411407,1.1701115369796753,0.3555232882499695
1659026351660960500,5.69896044921875,-0.22174391150474548,1.3096940517425537,0.44440412521362305
1659026351670631000,5.708630859375,-0.2208276242017746,1.4046835899353027,0.536339282989502
1659026351680301300,5.71830126953125,-0.2098320573568344,1.4358376264572144,0.6026180982589722
1659026351689971500,5.727971435546875,-0.18600831925868988,1.4223986864089966,0.6575959324836731
1659026351699641900,5.737641845703125,-0.14110976457595825,1.3741402626037598,0.6829468011856079
1659026351709312300,5.747312255859375,-0.0873536616563797,1.305112600326538,0.6499601006507874
1659026351718982700,5.756982666015625,-0.028099779039621353,1.2977821826934814,0.5925388336181641
1659026351728653000,5.766653076171875,-0.0021380267571657896,1.4202606678009033,0.554665207862854
1659026351738323200,5.7763232421875,-0.06933315098285675,1.5121957063674927,0.5699368119239807
1659026351747993900,5.785993896484375,-0.1847866028547287,0.11759147047996521,0.516791582107544
1659026351757664000,5.7956640625,-0.10751219838857651,-1.388801097869873,0.38179048895835876
1659026351767334400,5.80533447265625,0.05955931544303894,-1.250134825706482,0.3494146466255188
1659026351777004800,5.8150048828125,0.004276053514331579,-1.0888664722442627,0.2678641974925995
1659026351786675200,5.82467529296875,-0.0565049909055233,-1.138651967048645,0.2718348205089569
1659026351796345300,5.834345458984375,-0.08155044913291931,-1.0876446962356567,0.2672533392906189
1659026351806015700,5.844015625,-0.07849612087011337,-1.0293071269989014,0.22754712402820587
1659026351815686100,5.85368603515625,-0.032681263983249664,-1.0341941118240356,0.20311254262924194
1659026351825356500,5.8633564453125,0.0030543238390237093,-1.0903936624526978,0.1386663019657135
1659026351835027000,5.87302685546875,0.02932151034474373,-1.0876446962356567,0.08949168771505356
1659026351844697000,5.882697021484375,0.04550942778587341,-1.100778341293335,0.07422006875276566
1659026351854367500,5.892367431640625,0.05955931544303894,-0.9205732345581055,0.09957095980644226
1659026351864038000,5.902037841796875,0.059864748269319534,-0.8637627959251404,0.16218459606170654
1659026351873708300,5.911708251953125,0.03634645417332649,-0.8512400984764099,0.22357651591300964
1659026351883378700,5.921378662109375,0.012522728182375431,-0.7266236543655396,0.28069236874580383
1659026351893048800,5.931048828125,0.028099779039621353,-0.47036588191986084,0.34238970279693604
1659026351902719500,5.940719482421875,0.047036588191986084,-0.17745621502399445,0.3851502537727356
1659026351912389600,5.9503896484375,0.06291907280683517,0.07024945318698883,0.40714138746261597
1659026351922060000,5.96006005859375,0.09560033679008484,0.24495677649974823,0.4221075773239136
1659026351931730400,5.96973046875,0.11453714966773987,0.3695732057094574,0.4315759539604187
1659026351941400800,5.97940087890625,0.08093958348035812,0.48533207178115845,0.41874781250953674
1659026351951071200,5.9890712890625,0.025045456364750862,0.5775726437568665,0.39889469742774963
1659026351960741400,5.998741455078125,-0.017715077847242355,0.6166679859161377,0.39858928322792053
1659026351970411800,6.008411865234375,-0.0565049909055233,0.5632173418998718,0.3894262909889221
1659026351980082200,6.018082275390625,-0.07941242307424545,0.39675667881965637,0.3585776388645172
1659026351989752600,6.027752685546875,-0.05039634555578232,0.17776164412498474,0.3081812858581543
1659026351999423000,6.037423095703125,0.021991131827235222,0.09162971377372742,0.21380266547203064
1659026352009093000,6.047093017578125,0.09804379940032959,0.12217295914888382,0.08155044913291931
1659026352018763500,6.056763427734375,0.14660754799842834,0.1380554437637329,-0.04001164436340332
1659026352028434000,6.066433837890625,0.16829325258731842,0.10384701192378998,-0.11209368705749512
1659026352038104300,6.076104248046875,0.15515965223312378,0.02779434807598591,-0.12980876863002777
1659026352047774700,6.085774658203125,0.10109812021255493,-0.07544180005788803,-0.1078176349401474
1659026352057444900,6.09544482421875,0.02871064469218254,-0.19822561740875244,-0.06627883017063141
1659026352067115500,6.105115478515625,-0.018631376326084137,-0.323452889919281,-0.012522728182375431
1659026352076785700,6.11478564453125,-0.038789913058280945,-0.4214966893196106,0.04550942778587341
1659026352086456000,6.1244560546875,-0.03481929376721382,-0.5015199780464172,0.0824667438864708
1659026352096126500,6.13412646484375,-0.02626718580722809,-0.5763509273529053,0.08155044913291931
1659026352105796900,6.143796875,-0.02260199747979641,-0.6701186895370483,0.05253437161445618
1659026352115467000,6.153467041015625,-0.013133592903614044,-0.7785471677780151,0.013744457624852657
1659026352125137400,6.163137451171875,0.0021380267571657896,-0.8750637769699097,-0.04459312930703163
1659026352134807800,6.172807861328125,0.03481929376721382,-0.9447023868560791,-0.11056652665138245
1659026352144478200,6.182478271484375,0.07849612087011337,-0.9837977290153503,-0.15546508133411407
1659026352154148600,6.192148681640625,0.10079269111156464,-0.9865466356277466,-0.17592905461788177
1659026352163818800,6.20181884765625,0.09071341902017593,-0.9630283117294312,-0.18081597983837128
1659026352173489200,6.2114892578125,0.0665842592716217,-0.8946114778518677,-0.16859868168830872
1659026352183159600,6.22115966796875,0.03237583488225937,-0.7874047160148621,-0.13775001466274261
1659026352192830000,6.230829833984375,-0.0021380267571657896,-0.6743947267532349,-0.07452550530433655
1659026352202500400,6.240500244140625,-0.026878049597144127,-0.5806269645690918,-0.010995565913617611
1659026352212170500,6.25017041015625,-0.033597562462091446,-0.4932733178138733,0.03543015569448471
1659026352221841200,6.259841064453125,-0.023823726922273636,-0.4010327160358429,0.07024945318698883
1659026352231511300,6.26951123046875,-0.01588248461484909,-0.33017241954803467,0.0821613147854805
1659026352241181700,6.279181640625,-0.005803215317428112,-0.2874118685722351,0.08277218043804169
1659026352250852000,6.28885205078125,0.01802051067352295,-0.23487751185894012,0.08429934084415436
1659026352260522500,6.2985224609375,0.046425722539424896,-0.17318016290664673,0.0766635313630104
1659026352270193000,6.30819287109375,0.0720820426940918,-0.11453714966773987,0.06291907280683517
1659026352279863000,6.317863037109375,0.08979712426662445,-0.07513637095689774,0.051618073135614395
1659026352289533400,6.327533447265625,0.09957095980644226,-0.06047561392188072,0.053145237267017365
1659026352299203800,6.337203857421875,0.09162971377372742,-0.07788526266813278,0.06780599057674408
1659026352308874200,6.346874267578125,0.05925388261675835,-0.09651663154363632,0.0821613147854805
1659026352318544600,6.356544677734375,0.025350889191031456,-0.1178968995809555,0.09376774728298187
1659026352328214800,6.36621484375,0.005192350596189499,-0.14141519367694855,0.09651663154363632
1659026352337885200,6.37588525390625,0.0027488914784044027,-0.15546508133411407,0.09957095980644226
1659026352347555600,6.3855556640625,0.002443459117785096,-0.1750127524137497,0.09651663154363632
1659026352357226000,6.39522607421875,0.002443459117785096,-0.18417572975158691,0.09834922850131989
1659026352366896400,6.404896484375,0.0021380267571657896,-0.20952661335468292,0.10995566099882126
1659026352376566500,6.41456640625,0.000305432389723137,-0.2565632164478302,0.1185077652335167
1659026352386237200,6.4242373046875,-0.005192350596189499,-0.29535311460494995,0.1230892539024353
1659026352395907300,6.4339072265625,-0.0015271619195118546,-0.29413139820098877,0.1178968995809555
1659026352405577700,6.44357763671875,0.019853105768561363,-0.28038692474365234,0.10751219838857651
1659026352415248100,6.453248046875,0.05192350596189499,-0.2666424810886383,0.09285144507884979
1659026352424918500,6.46291845703125,0.07055488228797913,-0.2629773020744324,0.07819069176912308
1659026352434588700,6.472588623046875,0.0717766135931015,-0.24740023910999298,0.06902772188186646
1659026352444259000,6.482259033203125,0.06505709886550903,-0.24342961609363556,0.07452550530433655
1659026352453929500,6.491929443359375,0.04520399495959282,-0.2675587832927704,0.08765909820795059
1659026352463599900,6.501599853515625,0.023823726922273636,-0.2764163017272949,0.09712749719619751
1659026352473270300,6.511270263671875,0.016187917441129684,-0.25320345163345337,0.09529490768909454
1659026352482940400,6.5209404296875,0.028099779039621353,-0.19089524447917938,0.07757982611656189
1659026352492610800,6.53061083984375,0.06597339361906052,-0.0665842592716217,0.06872228533029556
1659026352502281200,6.54028125,0.10018182545900345,0.053756099194288254,0.05864302068948746
1659026352511951600,6.54995166015625,0.11545344442129135,0.11087195575237274,0.02932151034474373
1659026352521622000,6.5596220703125,0.13072505593299866,0.1594357043504715,0.002443459117785096
1659026352531292200,6.569292236328125,0.13927717506885529,0.21258094906806946,-0.015271619893610477
1659026352540962800,6.578962890625,0.14233149588108063,0.22357651591300964,-0.01435532234609127
1659026352550633000,6.588633056640625,0.13775001466274261,0.23854269087314606,0.007024944759905338
1659026352560303400,6.598303466796875,0.11881320178508759,0.25992295145988464,0.03756818547844887
1659026352569973800,6.607973876953125,0.08399390429258347,0.2660316228866577,0.07635809481143951
1659026352579644200,6.61764404296875,0.04734202101826668,0.25473061203956604,0.11362084746360779
1659026352589314600,6.627314453125,0.019242240116000175,0.23945899307727814,0.1380554437637329
1659026352598984700,6.636984619140625,0.000305432389723137,0.23335035145282745,0.1380554437637329
1659026352608655000,6.646655029296875,-0.014049889519810677,0.2556469142436981,0.12034036219120026
1659026352618325500,6.656325439453125,-0.02412915788590908,0.31031930446624756,0.10109812021255493
1659026352627996000,6.665995849609375,-0.03695731982588768,0.37110036611557007,0.07635809481143951
1659026352637666300,6.675666259765625,-0.04459312930703163,0.40408703684806824,0.05711585655808449
1659026352647336400,6.68533642578125,-0.04153880476951599,0.43829548358917236,0.05558869615197182
1659026352657006800,6.6950068359375,-0.04459312930703163,0.4569268524646759,0.07086031138896942
1659026352666677200,6.70467724609375,-0.061391908675432205,0.43860089778900146,0.09926552325487137
1659026352676347600,6.71434765625,-0.08613193035125732,0.39736753702163696,0.12492185086011887
1659026352686018000,6.72401806640625,-0.10751219838857651,0.3448331654071808,0.1383608728647232
1659026352695688200,6.733688232421875,-0.11331541836261749,0.2761108875274658,0.13439024984836578
1659026352705358600,6.743358642578125,-0.10629047453403473,0.18814635276794434,0.11331541836261749
1659026352715029000,6.753029052734375,-0.08826996386051178,0.09010255336761475,0.08979712426662445
1659026352724699400,6.762699462890625,-0.06780599057674408,-0.010079269297420979,0.06750056147575378
1659026352734369800,6.772369873046875,-0.05253437161445618,-0.10323614627122879,0.0412333719432354
1659026352744040200,6.782040283203125,-0.03940077871084213,-0.16676609218120575,0.01802051067352295
1659026352753710300,6.79171044921875,-0.034208428114652634,-0.19883649051189423,-0.005803215317428112
1659026352763380700,6.801380615234375,-0.03176496922969818,-0.205861434340477,-0.02779434807598591
1659026352773051100,6.811051025390625,-0.02718348242342472,-0.2052505612373352,-0.03695731982588768
1659026352782721500,6.820721435546875,-0.023823726922273636,-0.1902843713760376,-0.036651886999607086
1659026352792392000,6.830391845703125,-0.023823726922273636,-0.1802051067352295,-0.028099779039621353
1659026352802062000,6.84006201171875,-0.0308486707508564,-0.17684535682201385,-0.013744457624852657
1659026352811732500,6.849732421875,-0.04550942778587341,-0.18081597983837128,-0.000610864779446274
1659026352821403000,6.85940283203125,-0.05406153202056885,-0.17837251722812653,0.01435532234609127
1659026352831073300,6.8690732421875,-0.06230820715427399,-0.17867794632911682,0.022907428443431854
1659026352840743700,6.87874365234375,-0.05925388261675835,-0.19089524447917938,0.025350889191031456
1659026352850413800,6.888413818359375,-0.04001164436340332,-0.20769402384757996,0.026572618633508682
1659026352860084500,6.89808447265625,-0.0204639695584774,-0.21960589289665222,0.02107483521103859
1659026352869754600,6.907754638671875,-0.006719512399286032,-0.22449280321598053,0.019853105768561363
1659026352879425000,6.917425048828125,-0.0021380267571657896,-0.22357651591300964,0.01649334840476513
1659026352889095400,6.927095458984375,-0.0054977829568088055,-0.22235478460788727,0.013133592903614044
1659026352898765800,6.936765869140625,-0.012217295356094837,-0.23426663875579834,0.010995565913617611
1659026352908436200,6.946436279296875,-0.021685699000954628,-0.2565632164478302,0.004886918235570192
1659026352918106400,6.9561064453125,-0.024434590712189674,-0.277332603931427,-0.001832594396546483
1659026352927776800,6.96577685546875,-0.025961752980947495,-0.28954991698265076,-0.015271619893610477
1659026352937447200,6.975447265625,-0.023518294095993042,-0.30115634202957153,-0.024740023538470268
1659026352947117600,6.98511767578125,-0.024740023538470268,-0.3182605504989624,-0.02932151034474373
1659026352956788000,6.9947880859375,-0.033597562462091446,-0.3426951467990875,-0.02718348242342472
1659026352966458000,7.0044580078125,-0.05406153202056885,-0.3686569035053253,-0.017104214057326317
1659026352976128500,7.01412841796875,-0.08613193035125732,-0.40866854786872864,-0.0015271619195118546
1659026352985799000,7.023798828125,-0.11514800786972046,-0.4676169753074646,0.011911863461136818
1659026352995469300,7.03346923828125,-0.13530655205249786,-0.5174024701118469,0.014049889519810677
1659026353005139700,7.0431396484375,-0.13744457066059113,-0.5473348498344421,0.0027488914784044027
1659026353014810000,7.05281005859375,-0.12980876863002777,-0.5613847374916077,-0.011911863461136818
1659026353024480300,7.062480224609375,-0.11942406743764877,-0.5708531141281128,-0.023823726922273636
1659026353034150700,7.072150634765625,-0.10690133273601532,-0.5852084755897522,-0.029626941308379173
1659026353043821000,7.081821044921875,-0.09712749719619751,-0.5946768522262573,-0.03634645417332649
1659026353053491500,7.091491455078125,-0.09071341902017593,-0.5772672295570374,-0.04245510324835777
1659026353063161900,7.101161865234375,-0.08307760953903198,-0.5256491303443909,-0.043982263654470444
1659026353072832000,7.11083203125,-0.0720820426940918,-0.44348782300949097,-0.029016077518463135
1659026353082502400,7.12050244140625,-0.06475166976451874,-0.318871408700943,-0.001221729558892548
1659026353092172800,7.1301728515625,-0.06627883017063141,-0.13103049993515015,0.0409279391169548
1659026353101843200,7.13984326171875,-0.07086031138896942,0.07269290834665298,0.09957095980644226
1659026353111513600,7.149513671875,-0.08093958348035812,0.25809037685394287,0.16798780858516693
1659026353121183700,7.159183837890625,-0.09682206809520721,0.44868019223213196,0.23335035145282745
1659026353130854100,7.168854248046875,-0.11453714966773987,0.6685914993286133,0.2971857190132141
1659026353140524500,7.178524658203125,-0.14080433547496796,0.9153808951377869,0.3552178740501404
1659026353150195000,7.18819482421875,-0.17806708812713623,1.1771364212036133,0.4248564541339874
1659026353159865300,7.197865234375,-0.19394956529140472,1.3793326616287231,0.5149590373039246
1659026353169535500,7.207535400390625,-0.17745621502399445,1.4593559503555298,0.5891790986061096
1659026353179206100,7.2172060546875,-0.12767073512077332,1.4550799131393433,0.6191114783287048
1659026353188876300,7.226876220703125,-0.047036588191986084,1.469435214996338,0.609948456287384
1659026353198546700,7.236546630859375,0.049480047076940536,1.4868448972702026,0.572685718536377
1659026353208217000,7.246217041015625,0.13164135813713074,1.4385865926742554,0.5027416944503784
1659026353217887500,7.255887451171875,0.19364413619041443,1.3454296588897705,0.4101957082748413
1659026353227558000,7.265557861328125,0.26389357447624207,1.220813274383545,0.30512696504592896
1659026353237228000,7.27522802734375,0.3787361681461334,1.0965023040771484,0.21807873249053955
1659026353246898400,7.2848984375,0.5241219997406006,1.0094540119171143,0.16676609218120575
1659026353256568800,7.29456884765625,0.6768381595611572,0.9233221411705017,0.1432477980852127
1659026353266239200,7.3042392578125,0.8393282294273376,0.8555161356925964,0.15302163362503052
1659026353275909600,7.31390966796875,0.9847140312194824,0.7892373204231262,0.19211697578430176
1659026353285579800,7.323579833984375,1.109330415725708,0.7385355234146118,0.2406807243824005
1659026353295250200,7.333250244140625,1.2415826320648193,0.7205150127410889,0.2926042377948761
1659026353304920600,7.342920654296875,1.3762784004211426,0.7141009569168091,0.31459537148475647
1659026353314591000,7.352591064453125,1.5134174823760986,0.6863065958023071,0.31001389026641846
1659026353324261000,7.36226123046875,1.6404774188995361,0.6154462695121765,0.28985533118247986
1659026353333931800,7.371931884765625,1.7556253671646118,0.5204567909240723,0.26878049969673157
1659026353343602000,7.381601806640625,1.87627112865448,0.4211912751197815,0.24923282861709595
1659026353353272300,7.391272216796875,2.008523464202881,0.34177884459495544,0.23548837006092072
1659026353362942700,7.400942626953125,2.1441354751586914,0.2874118685722351,0.22876885533332825
1659026353372613000,7.410613037109375,2.2702789306640625,0.24831652641296387,0.2159406989812851
1659026353382283500,7.420283447265625,2.3854269981384277,0.19730933010578156,0.20280711352825165
1659026353391953700,7.42995361328125,2.4969098567962646,0.14202606678009033,0.19394956529140472
1659026353401624000,7.4396240234375,2.570518970489502,0.0922405794262886,0.1802051067352295
1659026353411294500,7.44929443359375,2.603811025619507,0.08002328872680664,0.17623448371887207
1659026353420964900,7.45896484375,2.6169447898864746,0.11239911615848541,0.18600831925868988
1659026353430635300,7.46863525390625,2.607476234436035,0.14141519367694855,0.1945604383945465
1659026353440305400,7.478305419921875,2.609919786453247,0.16004657745361328,0.20189081132411957
1659026353449975800,7.487975830078125,2.657261848449707,0.19730933010578156,0.20799945294857025
1659026353459646200,7.497646240234375,2.6981897354125977,0.19822561740875244,0.20738859474658966
1659026353469316600,7.507316650390625,2.735757827758789,0.16737695038318634,0.20922118425369263
1659026353478987000,7.516987060546875,2.7873759269714355,0.1496618688106537,0.2009745091199875
1659026353488657200,7.5266572265625,2.844186305999756,0.1747073233127594,0.17043127119541168
1659026353498327600,7.53632763671875,2.9016077518463135,0.22266021370887756,0.14019346237182617
1659026353507998000,7.545998046875,2.951087713241577,0.22663083672523499,0.10842850059270859
1659026353517668400,7.55566845703125,2.9944591522216797,0.17165300250053406,0.07055488228797913
1659026353527338800,7.5653388671875,3.0411903858184814,0.10170898586511612,0.01893680728971958
1659026353537009200,7.575009033203125,3.090975761413574,0.07605266571044922,-0.0412333719432354
1659026353546679300,7.58467919921875,3.1587817668914795,0.10659590363502502,-0.11606431007385254
1659026353556349700,7.594349609375,3.244302749633789,0.18631376326084137,-0.19761475920677185
1659026353566020000,7.60402001953125,3.3258533477783203,0.281914085149765,-0.2718348205089569
1659026353575690500,7.6136904296875,3.3826637268066406,0.38759371638298035,-0.3191768527030945
1659026353585361000,7.62336083984375,3.4193155765533447,0.5302306413650513,-0.3179551064968109
1659026353595031000,7.633031005859375,3.4266459941864014,0.7067705392837524,-0.27458372712135315
1659026353604701400,7.642701416015625,3.4052658081054688,0.8823941946029663,-0.2101374864578247
1659026353614371800,7.652371826171875,3.3353216648101807,0.9941824078559875,-0.14141519367694855
1659026353624042200,7.662042236328125,3.2571310997009277,1.0656535625457764,-0.04276053607463837
1659026353633712600,7.671712646484375,3.179856538772583,1.1038326025009155,0.05192350596189499
1659026353643382800,7.6813828125,3.1202971935272217,1.1279618740081787,0.129197895526886
1659026353653053400,7.691053466796875,3.0769259929656982,1.1597267389297485,0.18631376326084137
1659026353662723600,7.7007236328125,3.037219762802124,1.1856884956359863,0.2254091054201126
1659026353672394000,7.71039404296875,3.0002622604370117,1.1780527830123901,0.24220788478851318
1659026353682064400,7.720064453125,2.978271245956421,1.0986403226852417,0.23212862014770508
1659026353691734800,7.72973486328125,2.978882074356079,0.9755510687828064,0.1899789422750473
1659026353701405200,7.7394052734375,3.0082035064697266,0.8478803038597107,0.11759147047996521
1659026353711075300,7.749075439453125,3.0558509826660156,0.7351757884025574,0.034208428114652634
1659026353720745700,7.758745849609375,3.1059420108795166,0.5913171172142029,-0.03817904740571976
1659026353730416000,7.768416015625,3.132209062576294,0.411722868680954,-0.09040798991918564
1659026353740086500,7.77808642578125,3.1673338413238525,0.2562577724456787,-0.1233946830034256
1659026353749756700,7.787756591796875,3.241554021835327,0.13439024984836578,-0.15271618962287903
1659026353759427000,7.797427001953125,3.269348382949829,0.032681263983249664,-0.19272783398628235
1659026353769097500,7.807097412109375,3.252243995666504,-0.044898562133312225,-0.20952661335468292
1659026353778768000,7.816767822265625,3.236056089401245,-0.031154103577136993,-0.19883649051189423
1659026353788438300,7.826438232421875,3.2391104698181152,0.09560033679008484,-0.1750127524137497
1659026353798108400,7.8361083984375,3.2085671424865723,0.29443681240081787,-0.16829325258731842
1659026353807778800,7.84577880859375,3.1642794609069824,0.49968740344047546,-0.17806708812713623
1659026353817449200,7.85544921875,3.12701678276062,0.6707295179367065,-0.2003636509180069
1659026353827119600,7.86511962890625,3.1086909770965576,0.794124186038971,-0.2159406989812851
1659026353836790000,7.8747900390625,3.088226795196533,0.8735366463661194,-0.21899501979351044
1659026353846460400,7.88446044921875,3.017366647720337,0.9202677607536316,-0.1902843713760376
1659026353856130800,7.894130859375,2.9077162742614746,0.9382883310317993,-0.12125665694475174
1659026353865801000,7.903801025390625,2.7901248931884766,0.952032744884491,-0.0256563201546669
1659026353875471400,7.913471435546875,2.682307243347168,0.962417483329773,0.0720820426940918
1659026353885141800,7.923141845703125,2.5854852199554443,1.0112866163253784,0.14172062277793884
1659026353894812200,7.932812255859375,2.5198171138763428,1.0968077182769775,0.15485422313213348
1659026353904482600,7.942482666015625,2.4996585845947266,1.156977891921997,0.09315688163042068
1659026353914152700,7.952152587890625,2.5112650394439697,1.1606431007385254,-0.01893680728971958
1659026353923823000,7.961822998046875,2.5292856693267822,1.1102467775344849,-0.15057817101478577
1659026353933493500,7.971493408203125,2.543030023574829,1.0384701490402222,-0.2782489061355591
1659026353943164000,7.981163818359375,2.5491387844085693,0.9517273306846619,-0.3903425931930542
1659026353952834300,7.990834228515625,2.539975643157959,0.8271108865737915,-0.476779967546463
1659026353962504400,8.00050439453125,2.5127923488616943,0.6682860851287842,-0.5088503360748291
1659026353972174800,8.0101748046875,2.4718642234802246,0.5140427350997925,-0.4725039005279541
1659026353981845200,8.01984521484375,2.4184136390686035,0.40897396206855774,-0.3949240744113922
1659026353991515600,8.029515625,2.3631303310394287,0.3338375985622406,-0.3042106628417969
1659026354001186000,8.03918603515625,2.319453477859497,0.2977965772151947,-0.2211330533027649
1659026354010856400,8.0488564453125,2.291353702545166,0.29474225640296936,-0.16218459606170654
1659026354020526600,8.058526611328125,2.2812745571136475,0.2837466895580292,-0.1380554437637329
1659026354030197000,8.068197021484375,2.282801628112793,0.24556763470172882,-0.15210533142089844
1659026354039867400,8.077867431640625,2.293491840362549,0.19211697578430176,-0.17898337543010712
1659026354049537800,8.087537841796875,2.2959353923797607,0.14538581669330597,-0.2049451321363449
1659026354059208200,8.097208251953125,2.285856008529663,0.11514800786972046,-0.22785256803035736
1659026354068878300,8.10687841796875,2.2669191360473633,0.10231985151767731,-0.23976442217826843
1659026354078548700,8.116548828125,2.2342379093170166,0.0922405794262886,-0.24037529528141022
1659026354088219100,8.12621923828125,2.1884231567382812,0.09529490768909454,-0.23304490745067596
1659026354097889500,8.1358896484375,2.1450517177581787,0.09957095980644226,-0.22846342623233795
1659026354107560000,8.145559814453126,2.1248931884765625,0.10354158282279968,-0.21380266547203064
1659026354117230000,8.15522998046875,2.115424633026123,0.12247838824987411,-0.18661919236183167
1659026354126900500,8.164900390625,2.1022911071777344,0.13683371245861053,-0.1539379209280014
1659026354136571000,8.17457080078125,2.087019443511963,0.1389717310667038,-0.1130099818110466
1659026354146241300,8.1842412109375,2.0723588466644287,0.13011419773101807,-0.06963858753442764
1659026354155911700,8.19391162109375,2.050978422164917,0.12125665694475174,-0.035124726593494415
1659026354165582000,8.20358203125,2.0247113704681396,0.11331541836261749,-0.014966187067329884
1659026354175252200,8.213252197265625,1.997833251953125,0.0870482325553894,-0.011300998739898205
1659026354184922600,8.222922607421875,1.9746203422546387,0.05070177838206291,-0.017715077847242355
1659026354194593000,8.232593017578125,1.953240156173706,0.016187917441129684,-0.02871064469218254
1659026354204263400,8.242263427734375,1.9288055896759033,-0.01740964688360691,-0.039706211537122726
1659026354213933800,8.251933837890626,1.905287265777588,-0.03940077871084213,-0.044898562133312225
1659026354223604000,8.26160400390625,1.8832961320877075,-0.06444623321294785,-0.059864748269319534
1659026354233274400,8.2712744140625,1.869551658630371,-0.09926552325487137,-0.09071341902017593
1659026354242944800,8.28094482421875,1.8616104125976562,-0.1432477980852127,-0.12217295914888382
1659026354252615200,8.290615234375,1.8503093719482422,-0.19639302790164948,-0.12614357471466064
1659026354262285600,8.30028564453125,1.8377866744995117,-0.26358816027641296,-0.09346231073141098
1659026354271955700,8.309955810546874,1.8350378274917603,-0.34055712819099426,-0.04459312930703163
1659026354281626000,8.319626220703125,1.8487823009490967,-0.42088583111763,0.005803215317428112
1659026354291296500,8.329296630859375,1.8949025869369507,-0.4975493550300598,0.05345066636800766
1659026354300967000,8.338966796875,1.9129230976104736,-0.6414080262184143,0.022907428443431854
1659026354310637300,8.34863720703125,1.959959626197815,-0.685084879398346,0.05436696484684944
1659026354320307700,8.3583076171875,2.006385326385498,-0.6731730103492737,0.07116574794054031
1659026354329977900,8.367977783203125,2.036928653717041,-0.6835576891899109,0.05070177838206291
1659026354339648300,8.377648193359375,2.0696098804473877,-0.6701186895370483,0.0360410213470459
1659026354349318700,8.387318603515626,2.090684652328491,-0.6133082509040833,0.01893680728971958
1659026354358989000,8.396989013671876,2.104429244995117,-0.49663305282592773,0.01893680728971958
1659026354368659500,8.406659423828126,2.1087052822113037,-0.3704894781112671,0.01954767294228077
1659026354378329600,8.41632958984375,2.10687255859375,-0.26908594369888306,0.01435532234609127
1659026354388000000,8.426,2.107483386993408,-0.1853974610567093,0.019242240116000175
1659026354397670400,8.43567041015625,2.106261730194092,-0.10629047453403473,0.025045456364750862
1659026354407340800,8.4453408203125,2.095571517944336,-0.006719512399286032,0.0204639695584774
1659026354417011200,8.45501123046875,2.0888521671295166,0.12736530601978302,0.013439024798572063
1659026354426681300,8.464681396484375,2.079078197479248,0.2718348205089569,0.012522728182375431
1659026354436351700,8.474351806640625,2.065333843231201,0.40836310386657715,0.02718348242342472
1659026354446022100,8.484022216796875,2.0631957054138184,0.5216785073280334,0.04245510324835777
1659026354455692500,8.493692626953125,2.0744967460632324,0.6093376278877258,0.04520399495959282
1659026354465363000,8.503363037109375,2.0851869583129883,0.6753110289573669,0.03329212963581085
1659026354475033000,8.513033203125,2.087630271911621,0.7165443897247314,0.010995565913617611
1659026354484703500,8.522703369140626,2.087630271911621,0.7177661061286926,-0.008857538923621178
1659026354494374000,8.532373779296876,2.089462995529175,0.695164144039154,-0.012217295356094837
1659026354504044300,8.542044189453126,2.0934336185455322,0.6701186895370483,0.005803215317428112
1659026354513714700,8.551714599609374,2.098625898361206,0.6679806113243103,0.027488915249705315
1659026354523385000,8.561385009765624,2.0970988273620605,0.68386310338974,0.043371398001909256
1659026354533055200,8.57105517578125,2.08457612991333,0.6988292932510376,0.039706211537122726
1659026354542725600,8.5807255859375,2.0775511264801025,0.685084879398346,0.03817904740571976
1659026354552396000,8.59039599609375,2.0830488204956055,0.6380482912063599,0.049480047076940536
1659026354562066400,8.60006640625,2.0916008949279785,0.5684096813201904,0.06780599057674408
1659026354571736800,8.60973681640625,2.0949606895446777,0.5018253922462463,0.08491020649671555
1659026354581407000,8.619406982421875,2.1029019355773926,0.4566214084625244,0.1026252806186676
1659026354591077400,8.629077392578125,2.1218388080596924,0.42424559593200684,0.11026109009981155
1659026354600747800,8.638747802734375,2.1423027515411377,0.401949018239975,0.10690133273601532
1659026354610418200,8.648418212890626,2.1612396240234375,0.41294458508491516,0.10476330667734146
1659026354620088600,8.658088623046876,2.1670427322387695,0.4376846253871918,0.1078176349401474
1659026354629758700,8.6677587890625,2.162155866622925,0.4584540128707886,0.11209368705749512
1659026354639429000,8.67742919921875,2.159406900405884,0.46486809849739075,0.11545344442129135
1659026354649099500,8.687099609375,2.1676535606384277,0.46517354249954224,0.11239911615848541
1659026354658770000,8.69677001953125,2.178954601287842,0.46547895669937134,0.09957095980644226
1659026354668440300,8.7064404296875,2.188117742538452,0.4740310609340668,0.09437860548496246
1659026354678110700,8.71611083984375,2.1890339851379395,0.47464191913604736,0.09590577334165573
1659026354687780900,8.72578076171875,2.182008981704712,0.4529562294483185,0.09682206809520721
1659026354697451300,8.735451171875,2.1777329444885254,0.43432486057281494,0.09071341902017593
1659026354707121700,8.74512158203125,2.176816701889038,0.4269944727420807,0.07788526266813278
1659026354716792000,8.7547919921875,2.176511287689209,0.4251618981361389,0.0616973415017128
1659026354726462500,8.76446240234375,2.175900459289551,0.41874781250953674,0.0409279391169548
1659026354736132600,8.774132568359375,2.1618504524230957,0.40317076444625854,0.01954767294228077
1659026354745803000,8.783802978515626,2.146273374557495,0.39675667881965637,0.002443459117785096
1659026354755473400,8.793473388671876,2.143218994140625,0.38331764936447144,-0.01435532234609127
1659026354765143800,8.803143798828126,2.146578788757324,0.36682429909706116,-0.02871064469218254
1659026354774814200,8.812814208984374,2.1419973373413086,0.35063639283180237,-0.0360410213470459
1659026354784484400,8.822484375,2.139859437942505,0.32100942730903625,-0.02932151034474373
1659026354794154800,8.83215478515625,2.1279475688934326,0.2620609998703003,-0.011606430634856224
1659026354803825200,8.8418251953125,2.1111485958099365,0.205861434340477,0.016798781231045723
1659026354813495600,8.85149560546875,2.0964879989624023,0.18631376326084137,0.040317077189683914
1659026354823166000,8.861166015625,2.0916008949279785,0.2098320573568344,0.04428769648075104
1659026354832836400,8.87083642578125,2.095571517944336,0.24892739951610565,0.03176496922969818
1659026354842506500,8.880506591796875,2.100764036178589,0.29016077518463135,0.011300998739898205
1659026354852177000,8.890177001953125,2.100764036178589,0.31581708788871765,0.001221729558892548
1659026354861847300,8.899847412109375,2.0891575813293457,0.32620179653167725,-0.0009162971982732415
1659026354871517700,8.909517578125,2.0717480182647705,0.3329212963581085,0.000305432389723137
1659026354881188000,8.91918798828125,2.053421974182129,0.3387245237827301,-0.004581485874950886
1659026354890858200,8.928858154296876,2.037539482116699,0.34788748621940613,-0.015577051788568497
1659026354900528600,8.938528564453126,2.0274600982666016,0.3274235129356384,-0.022296564653515816
1659026354910199000,8.948198974609374,2.008523464202881,0.25320345163345337,-0.022296564653515816
1659026354919869400,8.957869384765624,1.9846997261047363,0.16065743565559387,-0.014049889519810677
1659026354929539800,8.967539794921874,1.9651520252227783,0.09590577334165573,0.000305432389723137
1659026354939210000,8.9772099609375,1.9486587047576904,0.06597339361906052,0.014660755172371864
1659026354948880400,8.98688037109375,1.9281946420669556,0.07147117704153061,0.029626941308379173
1659026354958550800,8.99655078125,1.915671944618225,0.0873536616563797,0.03695731982588768
1659026354968221200,9.00622119140625,1.9242240190505981,0.0821613147854805,0.034208428114652634
1659026354977891300,9.015891357421875,1.9443825483322144,0.05039634555578232,0.037262752652168274
1659026354987562000,9.02556201171875,1.96148681640625,0.01893680728971958,0.05955931544303894
1659026354997232000,9.035232177734375,1.9605704545974731,-0.013133592903614044,0.09468404203653336
1659026355006902500,9.044902587890626,1.9440771341323853,-0.043982263654470444,0.1285870373249054
1659026355016573000,9.054572998046876,1.935219645500183,-0.04764745384454727,0.14630211889743805
1659026355026243300,9.064243408203126,1.9385793209075928,-0.0308486707508564,0.13988803327083588
1659026355035913700,9.073913818359374,1.944688081741333,-0.019242240116000175,0.11148282140493393
1659026355045584000,9.083583984375,1.9507967233657837,-0.011300998739898205,0.07238747924566269
1659026355055254300,9.093254150390624,1.9633194208145142,0.005192350596189499,0.04367683082818985
1659026355064924700,9.102924560546874,1.9764529466629028,0.03237583488225937,0.03390299528837204
1659026355074595000,9.112594970703125,1.9850051403045654,0.06566796451807022,0.03298669680953026
1659026355084265200,9.12226513671875,1.988364815711975,0.1340848207473755,0.043982263654470444
1659026355093935600,9.131935546875,1.9843941926956177,0.20952661335468292,0.056810423731803894
1659026355103606000,9.14160595703125,1.9761475324630737,0.2706131041049957,0.06872228533029556
1659026355113276400,9.1512763671875,1.9721769094467163,0.3274235129356384,0.0772743970155716
1659026355122946800,9.16094677734375,1.9792019128799438,0.3952295184135437,0.06750056147575378
1659026355132617000,9.170616943359375,1.9920300245285034,0.45478883385658264,0.053756099194288254
1659026355142287400,9.180287353515626,2.0014984607696533,0.48105600476264954,0.047036588191986084
1659026355151957800,9.189957763671876,2.0106613636016846,0.4831940531730652,0.04550942778587341
1659026355161628200,9.199628173828126,2.014326572418213,0.4657844007015228,0.04245510324835777
1659026355171298600,9.209298583984374,2.017380952835083,0.4459312856197357,0.02718348242342472
1659026355180969000,9.218968994140624,2.0244059562683105,0.4196641147136688,0.008552107028663158
1659026355190639400,9.228639404296874,2.025627613067627,0.3949240744113922,-0.007330377586185932
1659026355200309500,9.2383095703125,2.023184061050415,0.39828383922576904,-0.01740964688360691
1659026355209980000,9.24797998046875,2.020435333251953,0.42455101013183594,-0.01435532234609127
1659026355219650300,9.257650390625,2.0131049156188965,0.4468475878238678,-0.001832594396546483
1659026355229320700,9.26732080078125,1.9960006475448608,0.4453204274177551,0.0021380267571657896
1659026355238990800,9.276990966796875,1.969733476638794,0.4272999167442322,-0.0054977829568088055
1659026355248661200,9.2866611328125,1.933692455291748,0.3970620930194855,-0.019242240116000175
1659026355258331600,9.29633154296875,1.898873209953308,0.34116798639297485,-0.032070402055978775
1659026355268002000,9.306001953125,1.879020094871521,0.2605338394641876,-0.036651886999607086
1659026355277672400,9.31567236328125,1.8713842630386353,0.18173226714134216,-0.03817904740571976
1659026355287342600,9.325342529296876,1.8640538454055786,0.1288924664258957,-0.02932151034474373
1659026355297013000,9.335012939453126,1.849698543548584,0.0873536616563797,-0.012522728182375431
1659026355306683400,9.344683349609374,1.8356486558914185,0.03848448023200035,0.013744457624852657
1659026355316353800,9.354353759765624,1.8319834470748901,0.01435532234609127,0.05253437161445618
1659026355326024200,9.364024169921874,1.8368704319000244,0.025961752980947495,0.09834922850131989
1659026355335694300,9.3736943359375,1.841146469116211,0.0668896958231926,0.13775001466274261
1659026355345364700,9.38336474609375,1.8448116779327393,0.1282816082239151,0.1594357043504715
1659026355355035100,9.39303515625,1.8539745807647705,0.19394956529140472,0.15760311484336853
1659026355364705500,9.40270556640625,1.8716896772384644,0.24373504519462585,0.13041962683200836
1659026355374376000,9.4123759765625,1.897346019744873,0.2626718580722809,0.08491020649671555
1659026355384046300,9.42204638671875,1.9358304738998413,0.25809037685394287,0.04917461425065994
1659026355393716500,9.431716552734375,1.9672900438308716,0.2360992431640625,0.04581485688686371
1659026355403387000,9.441386962890626,2.000582218170166,0.21135921776294708,0.07391463965177536
1659026355413057300,9.451057373046876,2.036317825317383,0.20402882993221283,0.11881320178508759
1659026355422727700,9.460727783203126,2.0631957054138184,0.2415970265865326,0.17043127119541168
1659026355432398000,9.470398193359374,2.068082809448242,0.2993237376213074,0.17776164412498474
1659026355442068200,9.480068115234374,2.054338216781616,0.32620179653167725,0.14477495849132538
1659026355451738600,9.489738525390624,2.1242823600769043,0.430659681558609,0.1640172004699707
1659026355461409000,9.499408935546874,2.104429244995117,0.535728394985199,0.13744457066059113
1659026355471079400,9.509079345703125,2.0882413387298584,0.5458076596260071,0.10629047453403473
1659026355480749600,9.51874951171875,2.092517375946045,0.5711585879325867,0.08338304609060287
1659026355490420000,9.528419921875,2.103818416595459,0.5580250024795532,0.03176496922969818
1659026355500090400,9.53809033203125,2.1142029762268066,0.4773908257484436,-0.016187917441129684
1659026355509760800,9.5477607421875,2.1242823600769043,0.3436114490032196,-0.05925388261675835
1659026355519431200,9.55743115234375,2.1496331691741943,0.2562577724456787,-0.07238747924566269
1659026355529101600,9.5671015625,2.162155866622925,0.2309068888425827,-0.0565049909055233
1659026355538772000,9.57677197265625,2.154825448989868,0.25961753726005554,-0.036651886999607086
1659026355548442000,9.586442138671876,2.1392483711242676,0.3426951467990875,-0.007330377586185932
1659026355558112500,9.596112548828126,2.1187844276428223,0.42913252115249634,0.017104214057326317
1659026355567783000,9.605782958984374,2.1059563159942627,0.4822777509689331,0.016798781231045723
1659026355577453300,9.615453369140624,2.0967934131622314,0.5036579966545105,0.005192350596189499
1659026355587123500,9.62512353515625,2.08457612991333,0.5061014890670776,-0.007024944759905338
1659026355596793900,9.6347939453125,2.0665555000305176,0.4822777509689331,-0.0256563201546669
1659026355606464300,9.64446435546875,2.0549490451812744,0.4355465769767761,-0.04825831577181816
1659026355616134700,9.654134765625,2.0500621795654297,0.39370235800743103,-0.07819069176912308
1659026355625805000,9.66380517578125,2.0500621795654297,0.37323838472366333,-0.09193515032529831
1659026355635475200,9.67347509765625,2.0470077991485596,0.37843072414398193,-0.08552107214927673
1659026355645145600,9.6831455078125,2.042426347732544,0.38728827238082886,-0.07513637095689774
1659026355654816000,9.69281591796875,2.0341796875,0.38240134716033936,-0.06750056147575378
1659026355664486400,9.702486328125,2.0158538818359375,0.347582072019577,-0.07086031138896942
1659026355674156800,9.71215673828125,2.001193046569824,0.30054548382759094,-0.0772743970155716
1659026355683827000,9.721826904296876,1.979507327079773,0.2458730787038803,-0.08307760953903198
1659026355693497300,9.731497314453126,1.9468261003494263,0.17837251722812653,-0.07574722915887833
1659026355703167700,9.741167724609374,1.9034546613693237,0.10965022444725037,-0.04428769648075104
1659026355712838100,9.750838134765624,1.857945203781128,0.06383536756038666,-0.004581485874950886
1659026355722508500,9.760508544921874,1.8176281452178955,0.06322450190782547,0.03817904740571976
1659026355732179000,9.770178955078125,1.784030556678772,0.09896009415388107,0.06780599057674408
1659026355741849000,9.77984912109375,1.7583742141723633,0.15057817101478577,0.06352993845939636
1659026355751519500,9.78951953125,1.749211311340332,0.20952661335468292,0.026878049597144127
1659026355761190000,9.79918994140625,1.7513493299484253,0.29474225640296936,-0.01954767294228077
1659026355770860300,9.8088603515625,1.7528765201568604,0.4147771894931793,-0.06047561392188072
1659026355780530700,9.81853076171875,1.7537927627563477,0.5592467188835144,-0.08368847519159317
1659026355790200800,9.828200927734375,1.7583742141723633,0.6988292932510376,-0.0824667438864708
1659026355799871200,9.837871337890626,1.7650938034057617,0.8072578310966492,-0.05345066636800766
1659026355809541600,9.847541748046876,1.7702860832214355,0.8778126835823059,-0.008857538923621178
1659026355819212000,9.8572119140625,1.7678426504135132,0.9062178730964661,0.0256563201546669
1659026355828882200,9.866882080078126,1.7583742141723633,0.8967494964599609,0.023518294095993042
1659026355838552600,9.876552490234374,1.7504329681396484,0.8707877397537231,-0.010384701192378998
1659026355848223000,9.886222900390624,1.746462345123291,0.813671886920929,-0.06017018109560013
1659026355857893400,9.895893310546874,1.7437134981155396,0.7153226733207703,-0.10720676928758621
1659026355867563800,9.905563720703125,1.7452406883239746,0.5861247777938843,-0.14110976457595825
1659026355877234200,9.915234130859375,1.7452406883239746,0.44837474822998047,-0.1545487940311432
1659026355886904600,9.924904541015625,1.73088538646698,0.3191768527030945,-0.1389717310667038
1659026355896574700,9.93457470703125,1.700342059135437,0.22968515753746033,-0.09712749719619751
1659026355906245000,9.9442451171875,1.6572761535644531,0.16615521907806396,-0.043371398001909256
1659026355915915500,9.95391552734375,1.6154319047927856,0.07483093440532684,-0.000305432389723137
1659026355925586000,9.9635859375,1.5796962976455688,-0.043982263654470444,0.026878049597144127
1659026355935256000,9.973256103515626,1.5488476753234863,-0.14630211889743805,0.04886918142437935
1659026355944926500,9.982926513671876,1.5097522735595703,-0.21838416159152985,0.06566796451807022
1659026355954596900,9.992596923828126,1.4746276140213013,-0.2620609998703003,0.06475166976451874
1659026355964267300,10.002267333984374,1.4569125175476074,-0.29138249158859253,0.051618073135614395
1659026355973937700,10.011937744140624,1.4550799131393433,-0.31001389026641846,0.0513126403093338
1659026355983607800,10.02160791015625,1.4559961557388306,-0.3078758418560028,0.06352993845939636
1659026355993278200,10.0312783203125,1.4569125175476074,-0.3023780584335327,0.08491020649671555
1659026356002948600,10.040948486328125,1.4596613645553589,-0.28924447298049927,0.10506874322891235
1659026356012619000,10.050618896484375,1.461493968963623,-0.272751122713089,0.12278381735086441
1659026356022289200,10.0602890625,1.4572179317474365,-0.2367101013660431,0.13958260416984558
1659026356031959600,10.06995947265625,1.4385865926742554,-0.1802051067352295,0.1533270627260208
1659026356041630000,10.0796298828125,1.407127022743225,-0.1432477980852127,0.15577052533626556
1659026356051300400,10.08930029296875,1.3616175651550293,-0.1487455666065216,0.13439024984836578
1659026356060970800,10.098970703125,1.3096940517425537,-0.18570289015769958,0.09651663154363632
1659026356070641200,10.10864111328125,1.2516618967056274,-0.25442516803741455,0.050090912729501724
1659026356080311600,10.1183115234375,1.1927134990692139,-0.33108872175216675,0
1659026356089981700,10.127981689453126,1.1475094556808472,-0.3802633285522461,-0.03298669680953026
1659026356099652000,10.137652099609374,1.1142174005508423,-0.4001164436340332,-0.040317077189683914
1659026356109322500,10.147322509765624,1.091004490852356,-0.36804601550102234,-0.03237583488225937
1659026356118993000,10.156992919921874,1.0748165845870972,-0.27427828311920166,-0.010384701192378998
1659026356128663000,10.1666630859375,1.0540472269058228,-0.14599667489528656,0.016798781231045723
1659026356138333400,10.17633349609375,1.0341941118240356,0.005192350596189499,0.041844237595796585
1659026356148003800,10.18600390625,1.0060943365097046,0.14080433547496796,0.0412333719432354
1659026356157674200,10.19567431640625,0.9856303334236145,0.2761108875274658,0.01893680728971958
1659026356167344600,10.2053447265625,0.9761618971824646,0.38270679116249084,-0.014966187067329884
1659026356177014800,10.215014892578125,0.9563088417053223,0.43340855836868286,-0.04581485688686371
1659026356186685200,10.224685302734375,0.9269872903823853,0.43279770016670227,-0.07147117704153061
1659026356196355600,10.23435546875,0.896138608455658,0.3943132162094116,-0.08155044913291931
1659026356206026000,10.24402587890625,0.8530726432800293,0.34177884459495544,-0.06719512492418289
1659026356215696100,10.253696044921876,0.796262264251709,0.28924447298049927,-0.029626941308379173
1659026356225366500,10.263366455078126,0.7345649003982544,0.25503605604171753,0.019242240116000175
1659026356235037000,10.273036865234374,0.6753110289573669,0.23457208275794983,0.07147117704153061
1659026356244707300,10.282707275390624,0.6218603253364563,0.2049451321363449,0.11331541836261749
1659026356254377700,10.292377685546874,0.5812378525733948,0.17623448371887207,0.13591741025447845
1659026356264048000,10.302048095703125,0.546113133430481,0.16523891687393188,0.13255766034126282
1659026356273718500,10.311718505859375,0.5131264328956604,0.14599667489528656,0.10354158282279968
1659026356283388700,10.321388671875,0.4932733178138733,0.11423171311616898,0.0616973415017128
1659026356293059000,10.33105908203125,0.48441576957702637,0.08949168771505356,0.02260199747979641
1659026356302729500,10.3407294921875,0.471587598323822,0.06261363625526428,-0.007024944759905338
1659026356312400000,10.35039990234375,0.4413498044013977,0.03145953640341759,-0.009162971749901772
1659026356322070000,10.360070068359375,0.4010327160358429,0.007330377586185932,0.008246674202382565
1659026356331740400,10.369740478515626,0.3601047992706299,-0.006719512399286032,0.039706211537122726
1659026356341410800,10.379410888671876,0.323452889919281,-0.015271619893610477,0.07147117704153061
1659026356351081200,10.389081298828126,0.29413139820098877,-0.01588248461484909,0.0925460159778595
1659026356360751600,10.398751708984374,0.2617555558681488,0.013133592903614044,0.08949168771505356
1659026356370421800,10.408421875,0.2214384824037552,0.08002328872680664,0.06261363625526428
1659026356380092200,10.418092041015624,0.17073670029640198,0.1380554437637329,0.0308486707508564
1659026356389762600,10.427762451171875,0.1233946830034256,0.14538581669330597,0.0030543238390237093
1659026356399433000,10.437432861328125,0.07635809481143951,0.10965022444725037,-0.01282816007733345
1659026356409103000,10.44710302734375,0.02718348242342472,0.06536252796649933,-0.009162971749901772
1659026356418773500,10.4567734375,-0.01649334840476513,0.021685699000954628,0.004886918235570192
1659026356428444000,10.46644384765625,-0.06017018109560013,-0.006108647678047419,0.022907428443431854
1659026356438114300,10.4761142578125,-0.09712749719619751,-0.002443459117785096,0.03848448023200035
1659026356447784700,10.48578466796875,-0.11881320178508759,0.020769402384757996,0.04459312930703163
1659026356457455000,10.495455078125,-0.12156209349632263,0.04734202101826668,0.05711585655808449
1659026356467125500,10.50512548828125,-0.1185077652335167,0.05253437161445618,0.07055488228797913
1659026356476795600,10.514795654296876,-0.1182023361325264,0.04276053607463837,0.0824667438864708
1659026356486466000,10.524466064453126,-0.11759147047996521,0.04520399495959282,0.08582650125026703
1659026356496136400,10.534136474609374,-0.1185077652335167,0.018631376326084137,0.06902772188186646
1659026356505806800,10.543806884765624,-0.11575887352228165,-0.029016077518463135,0.04825831577181816
1659026356515477000,10.55347705078125,-0.11423171311616898,-0.07788526266813278,0.03817904740571976
1659026356525147400,10.5631474609375,-0.11423171311616898,-0.12400554865598679,0.035124726593494415
1659026356534817800,10.57281787109375,-0.11575887352228165,-0.16646064817905426,0.035735588520765305
1659026356544488200,10.58248828125,-0.10995566099882126,-0.19181154668331146,0.04428769648075104
1659026356554158600,10.59215869140625,-0.1029307171702385,-0.19211697578430176,0.05803215503692627
1659026356563828700,10.601828857421875,-0.1026252806186676,-0.16523891687393188,0.06536252796649933
1659026356573499100,10.6114990234375,-0.10384701192378998,-0.10537417232990265,0.06933315098285675
1659026356583169500,10.62116943359375,-0.10629047453403473,-0.03848448023200035,0.06872228533029556
1659026356592840000,10.63083984375,-0.11239911615848541,0.005803215317428112,0.06414080411195755
1659026356602510000,10.640510009765626,-0.1127045527100563,0.04153880476951599,0.056810423731803894
1659026356612180700,10.6501806640625,-0.10629047453403473,0.07055488228797913,0.04001164436340332
1659026356621851000,10.659850830078126,-0.10048725455999374,0.08552107214927673,0.022907428443431854
1659026356631521300,10.669521240234374,-0.0925460159778595,0.09957095980644226,0.007635809946805239
1659026356641191700,10.679191650390624,-0.0818558782339096,0.1026252806186676,-0.002443459117785096
1659026356650862000,10.688862060546874,-0.07544180005788803,0.08765909820795059,0.011606430634856224
1659026356660532200,10.6985322265625,-0.08307760953903198,0.06322450190782547,0.041844237595796585
1659026356670202600,10.70820263671875,-0.0922405794262886,0.04734202101826668,0.0720820426940918
1659026356679873000,10.717873046875,-0.09529490768909454,0.03543015569448471,0.09193515032529831
1659026356689543400,10.72754345703125,-0.09560033679008484,0.01588248461484909,0.09010255336761475
1659026356699213800,10.7372138671875,-0.09529490768909454,-0.005803215317428112,0.0870482325553894
1659026356708884000,10.746884033203125,-0.09682206809520721,-0.02107483521103859,0.07391463965177536
1659026356718554400,10.756554443359375,-0.09407317638397217,-0.0256563201546669,0.04581485688686371
1659026356728224800,10.766224853515626,-0.08643736690282822,-0.01435532234609127,0.011911863461136818
1659026356737895200,10.775895263671876,-0.08002328872680664,0.003359756199643016,-0.0015271619195118546
1659026356747565300,10.7855654296875,-0.07941242307424545,0.009773836471140385,0.00946840364485979
1659026356757235700,10.795235595703126,-0.08460476994514465,0.004581485874950886,0.03329212963581085
1659026356766906000,10.804906005859374,-0.08949168771505356,-0.0027488914784044027,0.05345066636800766
1659026356776576500,10.814576416015624,-0.09162971377372742,-0.007330377586185932,0.05833758786320686
1659026356786247000,10.824246826171875,-0.09162971377372742,-0.012522728182375431,0.051618073135614395
1659026356795917000,10.8339169921875,-0.09315688163042068,-0.0204639695584774,0.0461202897131443
1659026356805587700,10.843587646484375,-0.08765909820795059,-0.03756818547844887,0.05436696484684944
1659026356815257900,10.8532578125,-0.0717766135931015,-0.07483093440532684,0.08277218043804169
1659026356824928300,10.86292822265625,-0.054672397673130035,-0.12370011955499649,0.1127045527100563
1659026356834598700,10.8725986328125,-0.035735588520765305,-0.15668681263923645,0.1279761642217636
1659026356844269000,10.88226904296875,-0.01588248461484909,-0.17226386070251465,0.13011419773101807
1659026356853939200,10.891939208984375,-0.0015271619195118546,-0.16523891687393188,0.1279761642217636
1659026356863609600,10.901609619140626,0.006719512399286032,-0.12980876863002777,0.12400554865598679
1659026356873280000,10.911280029296876,0.010690134018659592,-0.07483093440532684,0.1185077652335167
1659026356882950400,10.920950439453126,0.01740964688360691,-0.006719512399286032,0.11667517572641373
1659026356892620800,10.930620849609374,0.022296564653515816,0.03634645417332649,0.11209368705749512
1659026356902291000,10.940291015625,0.028405211865901947,0.05711585655808449,0.11423171311616898
1659026356911961300,10.94996142578125,0.03329212963581085,0.0922405794262886,0.13041962683200836
1659026356921631700,10.9596318359375,0.03695731982588768,0.1539379209280014,0.15668681263923645
1659026356931302100,10.96930224609375,0.053145237267017365,0.22266021370887756,0.18417572975158691
1659026356940972300,10.97897216796875,0.09315688163042068,0.33047783374786377,0.22235478460788727
1659026356950642700,10.988642578125,0.13011419773101807,0.554665207862854,0.27947062253952026
1659026356960313000,10.99831298828125,0.20708316564559937,0.8439096808433533,0.2877173125743866
1659026356969983500,11.0079833984375,0.42821621894836426,0.9776890873908997,0.03390299528837204
1659026356979654000,11.01765380859375,0.3344484567642212,1.5778636932373047,0.19883649051189423
1659026356989324000,11.027323974609375,-0.2965748608112335,2.082132577896118,0.8655954003334045
1659026356998994400,11.036994384765626,-0.5335903763771057,1.3234385251998901,0.8210022449493408
1659026357008664800,11.046664794921876,-0.1649334877729416,0.7254019379615784,0.2513708472251892
1659026357018335200,11.056335205078126,0.2260199636220932,0.4917461574077606,-0.33169957995414734
1659026357028005600,11.066005615234374,0.3075704276561737,0.23396120965480804,-0.6633991599082947
1659026357037676000,11.075676025390624,0.25045454502105713,-0.007024944759905338,-0.7611374855041504
1659026357047346200,11.08534619140625,0.1750127524137497,-0.15241076052188873,-0.8100066781044006
1659026357057016600,11.0950166015625,0.06963858753442764,-0.20158538222312927,-0.7373138070106506
1659026357066687000,11.10468701171875,-0.06536252796649933,-0.18417572975158691,-0.48655378818511963
1659026357076357400,11.114357421875,-0.26022839546203613,-0.16004657745361328,-0.19761475920677185
