time,seconds_elapsed,z,y,x
1659026346003806200,0.04180615234375,0.0006872228696011007,-0.00022907429956831038,0.0009162971982732415
1659026346013476600,0.0514765625,0.00038179047987796366,0.0006872228696011007,-0.000305432389723137
1659026346023146800,0.061146728515625,0.00007635809743078426,0.00007635809743078426,-0.0009162971982732415
1659026346032817200,0.070817138671875,0.00007635809743078426,0.00007635809743078426,-0.0021380267571657896
1659026346042487600,0.080487548828125,-0.00022907429956831038,-0.000839939049910754,-0.001832594396546483
1659026346052158000,0.090157958984375,0.00007635809743078426,0.00007635809743078426,-0.000305432389723137
1659026346061828400,0.099828369140625,-0.00022907429956831038,0.00007635809743078426,-0.001221729558892548
1659026346071498500,0.10949853515625,-0.00022907429956831038,-0.00022907429956831038,0.000305432389723137
1659026346081169000,0.1191689453125,-0.0005345066892914474,0.00007635809743078426,0
1659026346090839300,0.12883935546875,0.0006872228696011007,-0.0011453714687377214,-0.001221729558892548
1659026346100509700,0.138509765625,0.00007635809743078426,-0.00022907429956831038,0
1659026346110180000,0.14818017578125,-0.000839939049910754,-0.00022907429956831038,-0.0009162971982732415
1659026346119850500,0.1578505859375,0.00007635809743078426,0.0006872228696011007,0.000610864779446274
1659026346129521000,0.16752099609375,0.00007635809743078426,0.0016035200096666813,0.000305432389723137
1659026346139191000,0.17719091796875,0.00038179047987796366,0.00038179047987796366,-0.0009162971982732415
1659026346148861400,0.186861328125,0.00007635809743078426,0.00038179047987796366,-0.000305432389723137
1659026346158531800,0.19653173828125,-0.00022907429956831038,-0.00022907429956831038,-0.002443459117785096
1659026346168202200,0.2062021484375,0.0006872228696011007,0.00007635809743078426,-0.001832594396546483
1659026346177872400,0.215872314453125,-0.0011453714687377214,0.00007635809743078426,-0.000610864779446274
1659026346187542800,0.225542724609375,-0.00022907429956831038,-0.0005345066892914474,-0.000610864779446274
1659026346197213200,0.235213134765625,0.00007635809743078426,-0.0005345066892914474,-0.0015271619195118546
1659026346206883600,0.244883544921875,0.00038179047987796366,-0.0005345066892914474,-0.000610864779446274
1659026346216554000,0.254553955078125,0.00007635809743078426,0.00038179047987796366,-0.000305432389723137
1659026346226224000,0.26422412109375,-0.00022907429956831038,0.00007635809743078426,0
1659026346235894500,0.27389453125,0.00007635809743078426,-0.00022907429956831038,-0.000610864779446274
1659026346245565000,0.28356494140625,0.00007635809743078426,0.0009926552884280682,-0.000610864779446274
1659026346255235300,0.2932353515625,0.00007635809743078426,0.00038179047987796366,0.000305432389723137
1659026346264905700,0.30290576171875,0.00007635809743078426,0.0009926552884280682,0.000610864779446274
1659026346274576000,0.312575927734375,0.00007635809743078426,0.0006872228696011007,-0.000305432389723137
1659026346284246500,0.32224658203125,0.00038179047987796366,0.00038179047987796366,-0.000305432389723137
1659026346293916700,0.331916748046875,-0.000839939049910754,0.00007635809743078426,-0.000305432389723137
1659026346303587000,0.341587158203125,0.00007635809743078426,-0.00022907429956831038,-0.000610864779446274
1659026346313257500,0.351257568359375,0.0006872228696011007,0.00038179047987796366,-0.001832594396546483
1659026346322927900,0.360927978515625,0.00007635809743078426,0.00038179047987796366,-0.001221729558892548
1659026346332598300,0.370598388671875,-0.0005345066892914474,0.00007635809743078426,0
1659026346342268400,0.380268310546875,0.0006872228696011007,-0.00022907429956831038,-0.000305432389723137
1659026346351938800,0.389938720703125,0.00038179047987796366,0.00007635809743078426,-0.000305432389723137
1659026346361609200,0.399609130859375,-0.00022907429956831038,-0.0005345066892914474,-0.001221729558892548
1659026346371279600,0.409279541015625,-0.00022907429956831038,0.00038179047987796366,-0.0015271619195118546
1659026346380949800,0.41894970703125,0.00038179047987796366,-0.00022907429956831038,-0.0015271619195118546
1659026346390620200,0.4286201171875,-0.00022907429956831038,-0.00022907429956831038,-0.001221729558892548
1659026346400290600,0.43829052734375,0.00038179047987796366,0.00007635809743078426,0.000305432389723137
1659026346409961000,0.4479609375,-0.00022907429956831038,0.00038179047987796366,-0.0009162971982732415
1659026346419631400,0.45763134765625,-0.0005345066892914474,-0.00022907429956831038,-0.000305432389723137
1659026346429301500,0.467301513671875,0.0006872228696011007,0.00038179047987796366,-0.001221729558892548
1659026346438972200,0.47697216796875,0.00007635809743078426,-0.00022907429956831038,-0.001832594396546483
1659026346448642300,0.486642333984375,0.00007635809743078426,-0.00022907429956831038,-0.0009162971982732415
1659026346458312700,0.496312744140625,-0.00022907429956831038,-0.00022907429956831038,-0.000305432389723137
1659026346467983000,0.505983154296875,0.00038179047987796366,0.00038179047987796366,-0.000610864779446274
1659026346477653500,0.515653564453125,0.00007635809743078426,0.00007635809743078426,0.000610864779446274
1659026346487324000,0.525323974609375,-0.0005345066892914474,0.00038179047987796366,0
1659026346496994000,0.534994140625,-0.00022907429956831038,-0.00022907429956831038,0.000610864779446274
1659026346506664400,0.54466455078125,0.0006872228696011007,-0.0005345066892914474,-0.0009162971982732415
1659026346516334800,0.5543349609375,0.00038179047987796366,-0.00022907429956831038,0.001221729558892548
1659026346526005200,0.564005126953125,0.00038179047987796366,-0.0005345066892914474,0.000305432389723137
1659026346535675400,0.57367529296875,0.0006872228696011007,-0.00022907429956831038,-0.000610864779446274
1659026346545345800,0.583345703125,0.00007635809743078426,0.00007635809743078426,-0.000305432389723137
1659026346555016200,0.59301611328125,-0.00022907429956831038,-0.0005345066892914474,-0.000305432389723137
1659026346564686600,0.6026865234375,-0.0011453714687377214,-0.0005345066892914474,0
1659026346574357000,0.61235693359375,-0.01824958436191082,-0.0011453714687377214,-0.0021380267571657896
1659026346584027100,0.622027099609375,-0.07200568914413452,0.0034361144062131643,-0.0015271619195118546
1659026346593697500,0.631697509765625,-0.16638429462909698,-0.0005345066892914474,0
1659026346603368000,0.641367919921875,-0.27084216475486755,-0.003894262947142124,-0.000610864779446274
1659026346613038300,0.651038330078125,-0.33284494280815125,-0.007254019379615784,-0.001832594396546483
1659026346622708700,0.660708740234375,-0.35391977429389954,-0.0066431546583771706,-0.001221729558892548
1659026346632379100,0.670379150390625,-0.34170249104499817,-0.002061668550595641,0.001221729558892548
1659026346642049500,0.680049560546875,-0.3252091407775879,-0.002061668550595641,0.001832594396546483
1659026346651719700,0.6897197265625,-0.2928332984447479,-0.0005345066892914474,0.0015271619195118546
1659026346661390000,0.69939013671875,-0.26656612753868103,-0.0035888305865228176,0.0027488914784044027
1659026346671060500,0.709060546875,-0.22991423308849335,-0.0023671009112149477,0.0009162971982732415
1659026346680731000,0.71873095703125,-0.16424626111984253,-0.003283398225903511,0
1659026346690401000,0.728401123046875,-0.09308052062988281,-0.00511599238961935,-0.0009162971982732415
1659026346700071400,0.738071533203125,-0.04512763395905495,-0.006948587018996477,-0.0030543238390237093
1659026346709741800,0.747741943359375,-0.02283107116818428,-0.009697478264570236,-0.003970621153712273
1659026346719412200,0.757412109375,-0.03352120518684387,-0.009697478264570236,-0.0054977829568088055
1659026346729082600,0.76708251953125,-0.08513928204774857,-0.014584396965801716,-0.007330377586185932
1659026346738752800,0.776752685546875,-0.09124792367219925,-0.015806125476956367,-0.006719512399286032
1659026346748423200,0.786423095703125,-0.07261654734611511,-0.010919207707047462,-0.009773836471140385
1659026346758093600,0.796093505859375,-0.054901473224163055,-0.009086613543331623,-0.007941242307424545
1659026346767764000,0.805763916015625,-0.026190826669335365,-0.009697478264570236,-0.008246674202382565
1659026346777434400,0.815434326171875,-0.002061668550595641,-0.013668099418282509,-0.007941242307424545
1659026346787104800,0.825104736328125,-0.0023671009112149477,-0.009086613543331623,-0.008857538923621178
1659026346796775000,0.83477490234375,-0.014889828860759735,-0.009086613543331623,-0.003970621153712273
1659026346806445300,0.8444453125,-0.03138317912817001,-0.006337722297757864,-0.001221729558892548
1659026346816115700,0.85411572265625,-0.042073313146829605,-0.00755945174023509,-0.002443459117785096
1659026346825786000,0.8637861328125,-0.07444914430379868,-0.005421424750238657,-0.003665188793092966
1659026346835456500,0.87345654296875,-0.05887209251523018,-0.0029779658652842045,0
1659026346845126700,0.883126708984375,-0.023136503994464874,0.00007635809743078426,0.0015271619195118546
1659026346854797000,0.892797119140625,-0.00022907429956831038,0.0012980876490473747,0.0015271619195118546
1659026346864467500,0.902467529296875,-0.0011453714687377214,0.004352411720901728,0.001832594396546483
1659026346874137900,0.912137939453125,-0.0005345066892914474,0.0012980876490473747,0.001221729558892548
1659026346883808300,0.921808349609375,-0.002061668550595641,-0.001450803829357028,-0.0021380267571657896
1659026346893478400,0.931478515625,0.0012980876490473747,-0.0066431546583771706,-0.003970621153712273
1659026346903148800,0.941148681640625,0.0019089524867013097,-0.009697478264570236,-0.006719512399286032
1659026346912819200,0.950819091796875,0.008017600513994694,-0.013362666592001915,-0.007635809946805239
1659026346922489600,0.960489501953125,0.02237292192876339,-0.015806125476956367,-0.007941242307424545
1659026346932160000,0.970159912109375,0.038560837507247925,-0.0017562361899763346,-0.0021380267571657896
1659026346941830100,0.979830078125,0.06757691502571106,0.01626427471637726,0.011911863461136818
1659026346951500500,0.98950048828125,0.11033745110034943,0.029703300446271896,0.01649334840476513
1659026346961171000,0.9991708984375,0.1579848974943161,0.031230462715029716,0.01740964688360691
1659026346970841300,1.00884130859375,0.1934150606393814,0.024816380813717842,0.010995565913617611
1659026346980511700,1.01851171875,0.18791727721691132,0.015347977168858051,0.0021380267571657896
1659026346990182100,1.02818212890625,0.14393500983715057,0.004046979360282421,-0.0021380267571657896
1659026346999852300,1.037852294921875,0.09537126123905182,-0.006948587018996477,-0.006719512399286032
1659026347009522700,1.047522705078125,0.04894553869962692,-0.014584396965801716,-0.009773836471140385
1659026347019193000,1.057193115234375,0.0058795735239982605,-0.01672242395579815,-0.010079269297420979
1659026347028863500,1.066863525390625,-0.00022907429956831038,-0.01000291109085083,-0.005192350596189499
1659026347038534000,1.076533935546875,-0.000839939049910754,0.0019089524867013097,0.001832594396546483
1659026347048204000,1.0862041015625,0.00007635809743078426,0.01259908638894558,0.006108647678047419
1659026347057874400,1.09587451171875,-0.0005345066892914474,0.00954476185142994,0.005192350596189499
1659026347067544800,1.105544921875,-0.00022907429956831038,0.0031306820455938578,0.000305432389723137
1659026347077215200,1.11521533203125,0.00038179047987796366,-0.00511599238961935,-0.0027488914784044027
1659026347086885400,1.124885498046875,0.00007635809743078426,-0.009086613543331623,-0.005192350596189499
1659026347096555800,1.1345556640625,-0.00022907429956831038,-0.006948587018996477,-0.003970621153712273
1659026347106226200,1.14422607421875,-0.00022907429956831038,0.00038179047987796366,0.000610864779446274
1659026347115896600,1.153896484375,-0.00022907429956831038,0.008933897130191326,0.004581485874950886
1659026347125567000,1.16356689453125,0.00038179047987796366,0.01259908638894558,0.006414080038666725
1659026347135237000,1.173237060546875,-0.0005345066892914474,0.009850194677710533,0.004581485874950886
1659026347144907800,1.18290771484375,0.00007635809743078426,0.004352411720901728,0.0021380267571657896
1659026347154578000,1.192577880859375,0.0006872228696011007,0.0009926552884280682,-0.000610864779446274
1659026347164248300,1.202248291015625,0.00038179047987796366,-0.003283398225903511,-0.002443459117785096
1659026347173918700,1.211918701171875,0.00007635809743078426,-0.00511599238961935,-0.004276053514331579
1659026347183589000,1.221589111328125,-0.0005345066892914474,-0.004810560029000044,-0.0027488914784044027
1659026347193259300,1.23125927734375,0.00007635809743078426,-0.00022907429956831038,-0.001221729558892548
1659026347202929700,1.2409296875,0.00007635809743078426,0.002825249684974551,0.0015271619195118546
1659026347212600000,1.25060009765625,0.0006872228696011007,0.004352411720901728,0.003359756199643016
1659026347222270500,1.2602705078125,0.00007635809743078426,0.004352411720901728,0.003359756199643016
1659026347231940900,1.26994091796875,0.00007635809743078426,-0.00022907429956831038,-0.000610864779446274
1659026347241611000,1.279611083984375,-0.0005345066892914474,-0.00847574882209301,-0.006108647678047419
1659026347251281400,1.289281494140625,0.00038179047987796366,-0.011530072428286076,-0.007941242307424545
1659026347260951800,1.298951904296875,-0.00022907429956831038,-0.00847574882209301,-0.0054977829568088055
1659026347270622200,1.308622314453125,-0.0005345066892914474,0.00007635809743078426,0
1659026347280292600,1.318292724609375,0.00007635809743078426,0.00923932995647192,0.006108647678047419
1659026347289962800,1.327962646484375,-0.000839939049910754,0.01259908638894558,0.007024944759905338
1659026347299633400,1.33763330078125,-0.001450803829357028,0.008628465235233307,0.005192350596189499
1659026347309303600,1.347303466796875,-0.0017562361899763346,0.006185005884617567,0.0009162971982732415
1659026347318974000,1.356973876953125,-0.001450803829357028,0.0022143847309052944,-0.0015271619195118546
1659026347328644400,1.366644287109375,-0.000839939049910754,0.00038179047987796366,-0.001832594396546483
1659026347338314800,1.376314697265625,-0.0005345066892914474,-0.00022907429956831038,-0.0015271619195118546
1659026347347985000,1.38598486328125,-0.000839939049910754,-0.002061668550595641,-0.001221729558892548
1659026347357655300,1.3956552734375,0.00007635809743078426,-0.003894262947142124,-0.0030543238390237093
1659026347367325700,1.40532568359375,-0.00022907429956831038,-0.01000291109085083,-0.004581485874950886
1659026347376996000,1.41499609375,0.0006872228696011007,-0.012140937149524689,-0.0054977829568088055
1659026347386666500,1.42466650390625,-0.00022907429956831038,-0.0035888305865228176,-0.001832594396546483
1659026347396336600,1.434336669921875,-0.001450803829357028,0.006185005884617567,0.0030543238390237093
1659026347406007000,1.444007080078125,-0.00022907429956831038,0.007101302966475487,0.003970621153712273
1659026347415677400,1.453677490234375,0.00038179047987796366,0.004046979360282421,0.0009162971982732415
1659026347425347800,1.463347900390625,0.00007635809743078426,-0.0005345066892914474,-0.0021380267571657896
1659026347435018200,1.473018310546875,0.00007635809743078426,-0.0035888305865228176,-0.003665188793092966
1659026347444688400,1.4826884765625,-0.00022907429956831038,-0.0029779658652842045,-0.0021380267571657896
1659026347454358800,1.49235888671875,-0.000839939049910754,-0.001450803829357028,-0.001221729558892548
1659026347464029200,1.502029296875,0.00007635809743078426,-0.0023671009112149477,-0.000610864779446274
1659026347473699600,1.511699462890625,-0.0005345066892914474,-0.0029779658652842045,-0.001832594396546483
1659026347483369700,1.52136962890625,-0.0005345066892914474,-0.0017562361899763346,-0.0009162971982732415
1659026347493040400,1.531040283203125,-0.0011453714687377214,0.0009926552884280682,0.0009162971982732415
1659026347502710500,1.54071044921875,-0.000839939049910754,0.0022143847309052944,0.001832594396546483
1659026347512381000,1.550380859375,0.00007635809743078426,0.0022143847309052944,0.001221729558892548
1659026347522051300,1.56005126953125,0.00007635809743078426,0.0022143847309052944,0.001832594396546483
1659026347531721700,1.5697216796875,0.00007635809743078426,0.0012980876490473747,0.001221729558892548
1659026347541392100,1.57939208984375,-0.0005345066892914474,0.00038179047987796366,0.001221729558892548
1659026347551062300,1.589062255859375,-0.000839939049910754,0.00038179047987796366,-0.0009162971982732415
1659026347560732700,1.598732666015625,0.00007635809743078426,-0.000839939049910754,-0.000305432389723137
1659026347570403000,1.608403076171875,-0.0011453714687377214,-0.002061668550595641,-0.000610864779446274
1659026347580073500,1.618073486328125,-0.000839939049910754,0.00038179047987796366,0
1659026347589743600,1.62774365234375,-0.0011453714687377214,0.0006872228696011007,0.000305432389723137
1659026347599414000,1.6374140625,-0.000839939049910754,0.00007635809743078426,0.000305432389723137
1659026347609084400,1.64708447265625,-0.0005345066892914474,0.0012980876490473747,0.000305432389723137
1659026347618754800,1.6567548828125,-0.00022907429956831038,0.0019089524867013097,0.000610864779446274
1659026347628425200,1.66642529296875,-0.0011453714687377214,0.0025198173243552446,0.002443459117785096
1659026347638095400,1.676095458984375,-0.0011453714687377214,0.0019089524867013097,0.0021380267571657896
1659026347647766000,1.68576611328125,-0.000839939049910754,-0.00022907429956831038,0.0015271619195118546
1659026347657436200,1.695436279296875,-0.00022907429956831038,-0.000839939049910754,-0.0009162971982732415
1659026347667106600,1.7051064453125,0.00038179047987796366,-0.001450803829357028,-0.000305432389723137
1659026347676777000,1.71477685546875,-0.002061668550595641,-0.00755945174023509,-0.0009162971982732415
1659026347686447400,1.724447265625,-0.010613775812089443,-0.01672242395579815,-0.004581485874950886
1659026347696117500,1.734117431640625,-0.015806125476956367,-0.02802342176437378,-0.009773836471140385
1659026347705788000,1.743787841796875,0.0009926552884280682,-0.03962985426187515,-0.016798781231045723
1659026347715458300,1.753458251953125,0.019013166427612305,-0.042684175074100494,-0.022907428443431854
1659026347725128700,1.763128662109375,0.05627591907978058,-0.03413207083940506,-0.014966187067329884
1659026347734799000,1.772799072265625,0.16042836010456085,-0.01000291109085083,0.000305432389723137
1659026347744469200,1.78246923828125,0.31039565801620483,-0.001450803829357028,0.005803215317428112
1659026347754139600,1.7921396484375,0.39072439074516296,-0.018860450014472008,0.005803215317428112
1659026347763810000,1.80181005859375,0.3833940029144287,-0.02802342176437378,0.006719512399286032
1659026347773480400,1.81148046875,0.3638463318347931,-0.04176788032054901,0.004276053514331579
1659026347783150800,1.82115087890625,0.3830885887145996,-0.05306887626647949,0.005192350596189499
1659026347792821000,1.830821044921875,0.42340564727783203,-0.07567087560892105,0.007024944759905338
1659026347802491400,1.840491455078125,0.42859798669815063,-0.07261654734611511,0.00946840364485979
1659026347812161800,1.850161865234375,0.4050796926021576,-0.033826638013124466,0.017715077847242355
1659026347821832200,1.859832275390625,0.43256860971450806,0.030314164236187935,0.044898562133312225
1659026347831502600,1.869502685546875,0.5052615404129028,0.08162680268287659,0.04306596517562866
1659026347841173000,1.879173095703125,0.5284743905067444,0.06879864633083344,0.01282816007733345
1659026347850843100,1.888843017578125,0.4551706314086914,0.0345902182161808,0.0009162971982732415
1659026347860513500,1.898513427734375,0.30886849761009216,0.0016035200096666813,-0.0009162971982732415
1659026347870184000,1.908183837890625,0.16165009140968323,-0.035964664071798325,0.007635809946805239
1659026347879854300,1.917854248046875,0.06421715766191483,-0.06650790572166443,0.006414080038666725
1659026347889524700,1.927524658203125,0.03061959706246853,-0.08544471114873886,-0.008552107028663158
1659026347899195000,1.93719482421875,0.03886627033352852,-0.09063705801963806,-0.01802051067352295
1659026347908865300,1.946865234375,0.0755181610584259,-0.09521854668855667,-0.022296564653515816
1659026347918535700,1.95653564453125,0.09781472384929657,-0.09918916970491409,-0.027488915249705315
1659026347928206000,1.9662060546875,0.04528035223484039,-0.11018473654985428,-0.040317077189683914
1659026347937876500,1.97587646484375,-0.06406444311141968,-0.09980003535747528,-0.03848448023200035
1659026347947546600,1.985546630859375,-0.11354449391365051,-0.09246965497732162,-0.026878049597144127
1659026347957217000,1.995217041015625,-0.11293362826108932,-0.0888044685125351,-0.016798781231045723
1659026347966887400,2.004887451171875,-0.10957387089729309,-0.06375901401042938,-0.013133592903614044
1659026347976557800,2.014557861328125,-0.08910989761352539,-0.07017309218645096,-0.016187917441129684
1659026347986228000,2.02422802734375,-0.08239039033651352,-0.10102175921201706,-0.0204639695584774
1659026347995898400,2.0338984375,-0.10254892706871033,-0.12637265026569366,-0.017715077847242355
1659026348005568800,2.04356884765625,-0.12301289290189743,-0.15111267566680908,-0.011300998739898205
1659026348015239200,2.0532392578125,-0.16852232813835144,-0.1911243200302124,-0.005192350596189499
1659026348024909600,2.06290966796875,-0.2271653413772583,-0.31268641352653503,-0.02107483521103859
1659026348034580000,2.072580078125,-0.2473238706588745,-0.5222130417823792,-0.03543015569448471
1659026348044250400,2.08225048828125,-0.27053675055503845,-0.714024543762207,-0.047036588191986084
1659026348053920500,2.09192041015625,-0.3258199989795685,-0.8707113862037659,-0.06017018109560013
1659026348063591000,2.1015908203125,-0.3920988440513611,-1.075961947441101,-0.07849612087011337
1659026348073261300,2.11126123046875,-0.46173742413520813,-1.28793203830719,-0.10231985151767731
1659026348082931700,2.120931640625,-0.5277107954025269,-1.3926953077316284,-0.1182023361325264
1659026348092601900,2.130601806640625,-0.5576431751251221,-1.335579514503479,-0.1182023361325264
1659026348102272300,2.140272216796875,-0.5307651162147522,-1.16789710521698,-0.10079269111156464
1659026348111942700,2.149942626953125,-0.4388299882411957,-1.0008255243301392,-0.08857539296150208
1659026348121613000,2.159613037109375,-0.2998582422733307,-0.8594104051589966,-0.08124501258134842
1659026348131283500,2.169283447265625,-0.16821688413619995,-0.7772490978240967,-0.06536252796649933
1659026348140953600,2.17895361328125,-0.10010546445846558,-0.6886736750602722,-0.05497783049941063
1659026348150624000,2.1886240234375,-0.08788817375898361,-0.6016254425048828,-0.04581485688686371
1659026348160294400,2.19829443359375,-0.10590868443250656,-0.5277107954025269,-0.028099779039621353
1659026348169964800,2.20796484375,-0.09766200929880142,-0.37316203117370605,0.004886918235570192
1659026348179635200,2.21763525390625,-0.060704685747623444,-0.42080947756767273,-0.036651886999607086
1659026348189305600,2.2273056640625,-0.04909825697541237,-0.5267944931983948,-0.12400554865598679
1659026348198976000,2.23697607421875,-0.08544471114873886,-0.43088874220848083,-0.12553271651268005
1659026348208646100,2.246646240234375,-0.14286600053310394,-0.24457497894763947,-0.1646280586719513
1659026348218316500,2.256316650390625,-0.29741477966308594,-0.48525571823120117,-0.21868959069252014
1659026348227987000,2.265987060546875,-0.5344303250312805,-0.6996692419052124,-0.3249800503253937
1659026348237657300,2.2756572265625,-0.6883682608604431,-0.547563910484314,-0.30604326725006104
1659026348247327500,2.285327392578125,-0.7204386591911316,-0.3252091407775879,-0.22296564280986786
1659026348256998000,2.294997802734375,-0.5921570658683777,-0.12148573249578476,-0.11667517572641373
1659026348266668300,2.304668212890625,-0.41408994793891907,0.09292780607938766,0.009773836471140385
1659026348276338700,2.314338623046875,-0.27572908997535706,0.1995237022638321,0.09346231073141098
1659026348286009000,2.324009033203125,-0.1758527010679245,0.3720930218696594,0.1844811588525772
1659026348295679200,2.33367919921875,-0.10254892706871033,0.6234638690948486,0.2782489061355591
1659026348305349600,2.343349609375,-0.004199695307761431,0.6949350237846375,0.3326158821582794
1659026348315020000,2.35302001953125,0.02084576152265072,0.8885791897773743,0.41874781250953674
1659026348324690400,2.3626904296875,-0.01824958436191082,1.0855830907821655,0.4825831651687622
1659026348334360800,2.37236083984375,0.009850194677710533,1.3910154104232788,0.4868592321872711
1659026348344031000,2.382031005859375,0.09353867173194885,1.4908918142318726,0.411722868680954
1659026348353701400,2.391701416015625,0.17967060208320618,1.5177699327468872,0.3280344009399414
1659026348363371800,2.401371826171875,0.2135736048221588,1.5889356136322021,0.2828303873538971
1659026348373042200,2.411042236328125,0.17692171037197113,1.5745803117752075,0.27977606654167175
1659026348382712600,2.420712646484375,0.11430807411670685,0.9475276470184326,0.2211330533027649
1659026348392383000,2.430383056640625,0.027259841561317444,0.6234638690948486,0.2009745091199875
1659026348402053000,2.44005322265625,-0.12637265026569366,0.7321978211402893,0.23273947834968567
1659026348411723500,2.4497236328125,-0.2372446060180664,0.9624938368797302,0.33017241954803467
1659026348421394000,2.459393798828125,-0.18379394710063934,1.1268163919448853,0.4529562294483185
1659026348431064300,2.469064208984375,-0.060704685747623444,1.200425624847412,0.5418370366096497
1659026348440734700,2.478734619140625,0.1170569658279419,1.1683552265167236,0.5968148708343506
1659026348450404900,2.48840478515625,0.28473934531211853,1.1384228467941284,0.6374374032020569
1659026348460075300,2.4980751953125,0.3888917863368988,1.0779472589492798,0.6389645338058472
1659026348469745700,2.50774560546875,0.46372273564338684,0.9777654409408569,0.5299251675605774
1659026348479416000,2.517416015625,0.5174788236618042,1.017166256904602,0.4114174246788025
1659026348489086500,2.52708642578125,0.5370265245437622,1.026940107345581,0.2684750556945801
1659026348498756600,2.536756591796875,0.5067886710166931,0.9823469519615173,0.09590577334165573
1659026348508427000,2.546427001953125,0.4554760456085205,0.9389755129814148,-0.0769689604640007
1659026348518097400,2.556097412109375,0.3879754841327667,0.9166789650917053,-0.24312418699264526
1659026348527767800,2.565767822265625,0.2963457703590393,0.9096540212631226,-0.3787361681461334
1659026348537438200,2.575438232421875,0.17508912086486816,0.838182806968689,-0.4612029194831848
1659026348547108600,2.585108642578125,0.00038179047987796366,0.4108829200267792,-0.5873464941978455
1659026348556778800,2.59477880859375,-0.06956222653388977,-0.1758527010679245,-0.6841685771942139
1659026348566449200,2.60444921875,0.028787001967430115,-0.478841632604599,-0.6447677612304688
1659026348576119600,2.61411962890625,0.12866339087486267,-0.6346121430397034,-0.555276095867157
1659026348585790000,2.6237900390625,0.1689804643392563,-0.7292962074279785,-0.4269944727420807
1659026348595460400,2.63346044921875,0.15676318109035492,-0.7311288118362427,-0.282524973154068
1659026348605130500,2.643130615234375,0.0862082913517952,-0.6297252178192139,-0.19639302790164948
1659026348614801000,2.65280078125,-0.0191658828407526,-0.4855611324310303,-0.18387030065059662
1659026348624471300,2.66247119140625,-0.13370302319526672,-0.42539095878601074,-0.19914191961288452
1659026348634141700,2.6721416015625,-0.23571744561195374,-0.5081631541252136,-0.205861434340477
1659026348643812000,2.68181201171875,-0.2790888547897339,-0.5964331030845642,-0.18906265497207642
1659026348653480700,2.691480712890625,-0.2738964855670929,-0.5790234804153442,-0.14630211889743805
1659026348663151000,2.701151123046875,-0.25129449367523193,-0.5011382102966309,-0.0824667438864708
1659026348672821500,2.710821533203125,-0.20609050989151,-0.36430448293685913,-0.0054977829568088055
1659026348682492000,2.720491943359375,-0.11873684078454971,-0.10285435616970062,0.07086031138896942
1659026348692162000,2.730162109375,-0.08605557680130005,0.21846051514148712,0.12522727251052856
1659026348701832700,2.739832763671875,-0.0988837331533432,0.5025126338005066,0.18753549456596375
1659026348711502800,2.7495029296875,-0.1495855152606964,0.6564505696296692,0.2254091054201126
1659026348721173200,2.75917333984375,-0.22594361007213593,0.56298828125,0.19394956529140472
1659026348730843600,2.76884375,-0.26045745611190796,0.21021384000778198,0.09162971377372742
1659026348740514000,2.77851416015625,-0.1963166743516922,-0.26564982533454895,-0.04917461425065994
1659026348750184400,2.788184326171875,-0.057955797761678696,-0.5939896106719971,-0.1902843713760376
1659026348759854600,2.7978544921875,0.028787001967430115,-0.6950877904891968,-0.3139844834804535
1659026348769525000,2.80752490234375,0.06696604937314987,-0.5881864428520203,-0.3652971386909485
1659026348779195400,2.8171953125,0.07918334752321243,-0.4421897530555725,-0.35796675086021423
1659026348788865800,2.82686572265625,0.051389001309871674,-0.4730384051799774,-0.3280344009399414
1659026348798536000,2.836535888671875,0.010155626572668552,-0.6657662391662598,-0.2669478952884674
1659026348808206300,2.846206298828125,-0.005421424750238657,-0.9763910174369812,-0.21502439677715302
1659026348817876700,2.855876708984375,0.026343543082475662,-1.2943460941314697,-0.22968515753746033
1659026348827547100,2.865547119140625,0.08468113094568253,-1.520060658454895,-0.2767217457294464
1659026348837217500,2.875217529296875,0.11308634281158447,-1.6342923641204834,-0.3396408259868622
1659026348846887700,2.8848876953125,0.11003202199935913,-1.6911027431488037,-0.4056142270565033
1659026348856558300,2.894558349609375,0.07460185885429382,-1.7356959581375122,-0.4608974754810333
1659026348866228500,2.904228515625,0.04528035223484039,-1.6648355722427368,-0.4981602132320404
1659026348875899000,2.91389892578125,0.04711294546723366,-1.5554908514022827,-0.5155698657035828
1659026348885569300,2.9235693359375,0.08956804871559143,-1.5860340595245361,-0.5210676789283752
1659026348895239700,2.93323974609375,0.16134466230869293,-1.5820634365081787,-0.5332849621772766
1659026348904910000,2.94291015625,0.21784965693950653,-1.611995816230774,-0.5476402640342712
1659026348914580200,2.952580322265625,0.2496146261692047,-1.6181044578552246,-0.5537489056587219
1659026348924250600,2.962250732421875,0.26855143904685974,-1.6046653985977173,-0.5390881896018982
1659026348933921000,2.971921142578125,0.26946771144866943,-1.6510910987854004,-0.48930269479751587
1659026348943591400,2.98159130859375,0.23342670500278473,-1.6804126501083374,-0.4105011224746704
1659026348953261600,2.991261474609375,0.1582903414964676,-1.4427862167358398,-0.3072649836540222
1659026348962932000,3.000931884765625,0.07124210149049759,-0.9641736745834351,-0.22876885533332825
1659026348972602400,3.010602294921875,0.038560837507247925,-0.35300347208976746,-0.18814635276794434
1659026348982272800,3.020272705078125,0.08223766833543777,0.183030366897583,-0.17348559200763702
1659026348991943200,3.029943115234375,0.1781434416770935,0.4719693958759308,-0.20402882993221283
1659026349001613300,3.03961328125,0.297872930765152,0.5006800293922424,-0.27488914132118225
1659026349011283700,3.04928369140625,0.399887353181839,0.3525453209877014,-0.33078327775001526
1659026349020954000,3.0589541015625,0.43776097893714905,0.1534034162759781,-0.32100942730903625
1659026349030624500,3.06862451171875,0.34490951895713806,0.07887791097164154,-0.3087921440601349
1659026349040295000,3.078294921875,0.15890119969844818,0.15493057668209076,-0.3017672002315521
1659026349049965300,3.08796533203125,-0.037491824477910995,0.28870996832847595,-0.27947062253952026
1659026349059635700,3.0976357421875,-0.14866921305656433,0.41118836402893066,-0.21258094906806946
1659026349069305900,3.107305908203125,-0.14103341102600098,0.46952593326568604,-0.1438586562871933
1659026349078976300,3.116976318359375,-0.07689260691404343,0.35957029461860657,-0.0821613147854805
1659026349088646700,3.126646728515625,-0.03321577236056328,0.09934188425540924,-0.012217295356094837
1659026349098317000,3.136317138671875,-0.03168861195445061,-0.24946190416812897,0.06017018109560013
1659026349107987500,3.145987548828125,-0.015500693581998348,-0.5869646668434143,0.1383608728647232
1659026349117657600,3.15565771484375,0.040088001638650894,-0.7845794558525085,0.1997527778148651
1659026349127328000,3.165327880859375,0.10422880202531815,-0.7827468514442444,0.25503605604171753
1659026349136998400,3.174998291015625,0.13355031609535217,-0.5781071782112122,0.2861901521682739
1659026349146668800,3.184668701171875,0.14576761424541473,-0.19448406994342804,0.2779434621334076
1659026349156339000,3.1943388671875,0.18119776248931885,0.23373213410377502,0.2608392536640167
1659026349166009300,3.20400927734375,0.23617559671401978,0.5794816017150879,0.2620609998703003
1659026349175679700,3.2136796875,0.27832525968551636,0.821384072303772,0.2883281707763672
1659026349185350100,3.22335009765625,0.27771440148353577,0.9640209674835205,0.3237583339214325
1659026349195020500,3.2330205078125,0.23617559671401978,0.9814306497573853,0.3637699782848358
1659026349204691000,3.24269091796875,0.1738673895597458,0.8745293021202087,0.41874781250953674
1659026349214361300,3.252361328125,0.09689842909574509,0.6781362891197205,0.47464191913604736
1659026349224031500,3.262031494140625,0.01107192412018776,0.46250098943710327,0.5348120927810669
1659026349233702000,3.271701904296875,-0.07689260691404343,0.30886849761009216,0.6117810606956482
1659026349243372300,3.281372314453125,-0.1553887277841568,0.26305365562438965,0.7015781998634338
1659026349253042700,3.291042724609375,-0.1963166743516922,0.3467421233654022,0.7840449213981628
1659026349262713000,3.300713134765625,-0.20242531597614288,0.5290852785110474,0.8255837559700012
1659026349272383200,3.31038330078125,-0.17279838025569916,0.6842449307441711,0.8118392825126648
1659026349282053600,3.3200537109375,-0.10590868443250656,0.7205913662910461,0.748920202255249
1659026349291724000,3.32972412109375,-0.022525638341903687,0.6753873825073242,0.6441569328308105
1659026349301394400,3.33939453125,0.05413788929581642,0.5871174335479736,0.5170970559120178
1659026349311064800,3.34906494140625,0.11125374585390091,0.5009855031967163,0.40286532044410706
1659026349320735000,3.35873486328125,0.13660463690757751,0.4457022249698639,0.3094030022621155
1659026349330405400,3.3684052734375,0.12469277530908585,0.418824166059494,0.2211330533027649
1659026349340075800,3.37807568359375,0.09017891436815262,0.3950004279613495,0.13683371245861053
1659026349349746200,3.38774609375,0.06299543380737305,0.37575820088386536,0.08063415437936783
1659026349359416300,3.397416259765625,0.06421715766191483,0.39713847637176514,0.05253437161445618
1659026349369087000,3.4070869140625,0.09903645515441895,0.42676541209220886,0.05864302068948746
1659026349378757000,3.416757080078125,0.14454588294029236,0.42187848687171936,0.0977383628487587
1659026349388427500,3.426427490234375,0.17936517298221588,0.3519344627857208,0.17837251722812653
1659026349398098000,3.436097900390625,0.18791727721691132,0.21754421293735504,0.2706131041049957
1659026349407768300,3.445768310546875,0.1476002037525177,0.014126247726380825,0.35246896743774414
1659026349417438700,3.455438720703125,0.07612902671098709,-0.1966221034526825,0.41447174549102783
1659026349427108900,3.46510888671875,-0.0029779658652842045,-0.3288743197917938,0.42882707715034485
1659026349436779300,3.474779296875,-0.062537282705307,-0.3502545952796936,0.39736753702163696
1659026349446449700,3.48444970703125,-0.09216422587633133,-0.308104932308197,0.33200499415397644
1659026349456120000,3.4941201171875,-0.08941533416509628,-0.21036656200885773,0.2611446976661682
1659026349465790500,3.50379052734375,-0.05459604039788246,-0.08575014024972916,0.21685700118541718
1659026349475460600,3.513460693359375,0.005268708802759647,0.011682788841426373,0.20738859474658966
1659026349485131000,3.523131103515625,0.08009964227676392,0.03733910992741585,0.22204934060573578
1659026349494801400,3.532801513671875,0.1219438835978508,-0.0005345066892914474,0.22907429933547974
1659026349504471800,3.542471923828125,0.116751529276371,-0.08636100590229034,0.21655155718326569
1659026349514142000,3.552141845703125,0.09506583213806152,-0.17799071967601776,0.19639302790164948
1659026349523812600,3.5618125,0.061162836849689484,-0.2320522516965866,0.1798996776342392
1659026349533482800,3.571482666015625,0.005574141163378954,-0.21861323714256287,0.1698204129934311
1659026349543153200,3.581153076171875,-0.03321577236056328,-0.11873684078454971,0.19822561740875244
1659026349552823600,3.590823486328125,-0.03474293276667595,0.026648975908756256,0.26939135789871216
1659026349562494000,3.600493896484375,-0.02496909722685814,0.16470441222190857,0.3436114490032196
1659026349572164400,3.610164306640625,-0.01672242395579815,0.2801578640937805,0.4120282828807831
1659026349581834500,3.61983447265625,-0.016416991129517555,0.3329976499080658,0.4731147587299347
1659026349591505000,3.6295048828125,-0.015195261687040329,0.27252206206321716,0.48930269479751587
1659026349601175300,3.63917529296875,-0.022220205515623093,0.21815508604049683,0.4780016839504242
1659026349610845700,3.648845703125,-0.039018988609313965,0.15095995366573334,0.42394015192985535
1659026349620516000,3.65851611328125,-0.03779725730419159,0.04192059487104416,0.3341430425643921
1659026349630186200,3.668186279296875,-0.03810269013047218,-0.07017309218645096,0.21899501979351044
1659026349639856600,3.677856689453125,-0.06681333482265472,-0.11629338562488556,0.08063415437936783
1659026349649527000,3.687527099609375,-0.07200568914413452,-0.08636100590229034,-0.03787361457943916
1659026349659197400,3.697197509765625,-0.05062541738152504,-0.014278964139521122,-0.10537417232990265
1659026349668867800,3.706867919921875,-0.027107125148177147,0.06482802331447601,-0.11117739230394363
1659026349678538000,3.7165380859375,-0.023136503994464874,0.09567669779062271,-0.047952886670827866
1659026349688208400,3.72620849609375,-0.04176788032054901,0.07124210149049759,0.0720820426940918
1659026349697878800,3.735878662109375,-0.08697187155485153,0.02756527252495289,0.20799945294857025
1659026349707549200,3.745549072265625,-0.13248129189014435,-0.026801692321896553,0.2993237376213074
1659026349717219600,3.755219482421875,-0.14592032134532928,-0.093691386282444,0.3439168632030487
1659026349726890000,3.764889892578125,-0.12576179206371307,-0.19234605133533478,0.35613417625427246
1659026349736560000,3.77456005859375,-0.08727730810642242,-0.29619306325912476,0.3246746361255646
1659026349746230500,3.78423046875,-0.036880962550640106,-0.345062255859375,0.250149130821228
1659026349755901000,3.79390087890625,0.015958841890096664,-0.34170249104499817,0.1646280586719513
1659026349765571300,3.8035712890625,0.04405862092971802,-0.28183773159980774,0.08491020649671555
1659026349775241700,3.81324169921875,0.05108356848359108,-0.12056943774223328,0.05070177838206291
1659026349784912000,3.822911865234375,0.04069886729121208,0.12286017835140228,0.0772743970155716
1659026349794582300,3.832582275390625,0.008017600513994694,0.36170831322669983,0.14752385020256042
1659026349804252700,3.842252685546875,-0.03565923124551773,0.5574904680252075,0.22418737411499023
1659026349813923000,3.851923095703125,-0.07139482349157333,0.7059305906295776,0.27427828311920166
1659026349823593500,3.861593505859375,-0.09033162891864777,0.7645736336708069,0.2861901521682739
1659026349833263600,3.871263671875,-0.10651954263448715,0.7425824999809265,0.25992295145988464
1659026349842934300,3.880934326171875,-0.12789981067180634,0.7071523666381836,0.23732095956802368
1659026349852604400,3.8906044921875,-0.15355613827705383,0.6842449307441711,0.25473061203956604
1659026349862274800,3.90027490234375,-0.16668972373008728,0.7273108959197998,0.31612253189086914
1659026349871945200,3.9099453125,-0.1761581301689148,0.8091667294502258,0.3698786199092865
1659026349881615600,3.91961572265625,-0.1963166743516922,0.8455132246017456,0.38698282837867737
1659026349891285800,3.92928564453125,-0.2176969349384308,0.8198568820953369,0.3249800503253937
1659026349900956200,3.9389560546875,-0.2329685539007187,0.8366556763648987,0.16523891687393188
1659026349910626600,3.94862646484375,-0.2723693251609802,0.9466113448143005,-0.09315688163042068
1659026349920297000,3.958296875,-0.31696245074272156,0.9811251759529114,-0.34086254239082336
1659026349929967400,3.96796728515625,-0.3462839722633362,0.8974367380142212,-0.4728093445301056
1659026349939637500,3.977637451171875,-0.3963748812675476,0.8604794144630432,-0.467006117105484
1659026349949308000,3.987307861328125,-0.42600181698799133,0.8888846039772034,-0.31154105067253113
1659026349958978300,3.996978271484375,-0.40889760851860046,0.8250492215156555,-0.08460476994514465
1659026349968648700,4.006648681640625,-0.4278344213962555,0.7697659730911255,0.07971785217523575
1659026349978319000,4.016319091796875,-0.4935023784637451,0.8891900181770325,0.1545487940311432
1659026349987989200,4.0259892578125,-0.5594757795333862,1.0382410287857056,0.13255766034126282
1659026349997660000,4.035659912109375,-0.5897135734558105,1.0666462182998657,0.039706211537122726
1659026350007330000,4.045330078125,-0.5851321220397949,0.9527199864387512,-0.048563748598098755
1659026350017000400,4.05500048828125,-0.5005273222923279,0.7786235213279724,-0.024740023538470268
1659026350026670800,4.0646708984375,-0.4363865256309509,0.6946296095848083,0.003970621153712273
1659026350036341200,4.07434130859375,-0.44432777166366577,0.8439860343933105,-0.044898562133312225
1659026350046011600,4.08401171875,-0.4269181191921234,1.025412917137146,-0.12186752259731293
1659026350055681800,4.093681884765625,-0.3194059133529663,1.1213186979293823,-0.2513708472251892
1659026350065352200,4.103352294921875,-0.17890702188014984,1.1665226221084595,-0.406530499458313
1659026350075022600,4.113022705078125,-0.05429060757160187,1.1494184732437134,-0.49082985520362854
1659026350084693000,4.12269287109375,0.031841326504945755,1.0962731838226318,-0.47464191913604736
1659026350094363400,4.13236328125,0.07185296714305878,1.008919596672058,-0.3744601011276245
1659026350104033500,4.142033447265625,0.04558578506112099,0.8339067697525024,-0.2000582218170166
1659026350113704000,4.151703857421875,-0.05948295816779137,0.607581377029419,-0.01802051067352295
1659026350123374300,4.161374267578125,-0.21861323714256287,0.3369682729244232,0.12034036219120026
1659026350133044700,4.171044677734375,-0.3771326541900635,0.07796161621809006,0.18203771114349365
1659026350142715000,4.18071484375,-0.47700902819633484,-0.12820523977279663,0.15607595443725586
1659026350152385300,4.19038525390625,-0.5093848705291748,-0.2903898358345032,0.04978547990322113
1659026350162055700,4.2000556640625,-0.4470766484737396,-0.37346744537353516,-0.05558869615197182
1659026350171726000,4.20972607421875,-0.27053675055503845,-0.41867145895957947,-0.07330377399921417
1659026350181396500,4.219396484375,-0.06711876392364502,-0.40034550428390503,-0.04428769648075104
1659026350191067000,4.22906689453125,0.043753188103437424,-0.3655261993408203,-0.056199558079242706
1659026350200737300,4.2387373046875,0.021456625312566757,-0.38843363523483276,-0.11239911615848541
1659026350210407400,4.248407470703125,-0.11079560220241547,-0.5493965148925781,-0.19853104650974274
1659026350220077800,4.258077880859375,-0.29558220505714417,-0.8087086081504822,-0.33047783374786377
1659026350229748200,4.267748291015625,-0.4519635736942291,-1.1086431741714478,-0.4633409380912781
1659026350239418600,4.277418701171875,-0.5283216834068298,-1.406745195388794,-0.5378664135932922
1659026350249089000,4.287089111328125,-0.4797579348087311,-1.6086360216140747,-0.5384773015975952
1659026350258759200,4.29675927734375,-0.3288743197917938,-1.6608649492263794,-0.4819723069667816
1659026350268429600,4.3064296875,-0.13156500458717346,-1.6663627624511719,-0.35735589265823364
1659026350278100000,4.316099853515625,0.05841394513845444,-1.6245185136795044,-0.17531819641590118
1659026350287770400,4.325770263671875,0.16073378920555115,-1.455614447593689,-0.022296564653515816
1659026350297440800,4.335440673828125,0.18577924370765686,-1.1425461769104004,0.05864302068948746
1659026350307111000,4.34511083984375,0.15645773708820343,-0.7277690172195435,0.0977383628487587
1659026350316781300,4.35478125,0.0859028622508049,-0.34872743487358093,0.10354158282279968
1659026350326451700,4.36445166015625,0.02756527252495289,-0.11476621776819229,0.12705987691879272
1659026350336122000,4.3741220703125,-0.0029779658652842045,-0.06192641705274582,0.20677772164344788
1659026350345792500,4.38379248046875,-0.018555017188191414,-0.13675735890865326,0.3335321843624115
1659026350355463000,4.393462890625,-0.012140937149524689,-0.22075125575065613,0.4633409380912781
1659026350365133000,4.403133056640625,0.02542724646627903,-0.2274707704782486,0.5568032264709473
1659026350374803500,4.412803466796875,0.09262236952781677,-0.15355613827705383,0.5809323787689209
1659026350384473900,4.422473876953125,0.1476002037525177,-0.03840812295675278,0.5210676789283752
1659026350394144300,4.432144287109375,0.16439898312091827,0.03611737862229347,0.41874781250953674
1659026350403814700,4.441814697265625,0.16531528532505035,0.00038179047987796366,0.3017672002315521
1659026350413484800,4.45148486328125,0.2044106274843216,-0.11995857208967209,0.18142683804035187
1659026350423155200,4.4611552734375,0.28993168473243713,-0.27175846695899963,0.07971785217523575
1659026350432825600,4.47082568359375,0.3788125216960907,-0.4162279963493347,0.004276053514331579
1659026350442496000,4.48049609375,0.414242684841156,-0.48036879301071167,-0.0412333719432354
1659026350452166400,4.49016650390625,0.37148213386535645,-0.5109120011329651,-0.05833758786320686
1659026350461836500,4.49983642578125,0.24594943225383759,-0.5542834401130676,-0.06597339361906052
1659026350471507000,4.5095068359375,0.08040507882833481,-0.5545888543128967,-0.06566796451807022
1659026350481177300,4.51917724609375,-0.05520690605044365,-0.4928915202617645,-0.03329212963581085
1659026350490847700,4.52884765625,-0.12545634806156158,-0.408592164516449,0.019242240116000175
1659026350500518100,4.53851806640625,-0.1352301836013794,-0.3597230017185211,0.07483093440532684
1659026350510188500,4.5481884765625,-0.13095413148403168,-0.372245728969574,0.12186752259731293
1659026350519859000,4.55785888671875,-0.14683662354946136,-0.4122573733329773,0.15241076052188873
1659026350529529000,4.567529052734375,-0.18257221579551697,-0.4324159026145935,0.1533270627260208
1659026350539199500,4.577199462890625,-0.21006113290786743,-0.4541015923023224,0.12950333952903748
1659026350548870000,4.586869873046875,-0.20578506588935852,-0.49197521805763245,0.08979712426662445
1659026350558540300,4.596540283203125,-0.17799071967601776,-0.5103011727333069,0.04581485688686371
1659026350568210700,4.606210693359375,-0.1352301836013794,-0.422947496175766,0.006108647678047419
1659026350577880800,4.615880859375,-0.0631481483578682,-0.26534438133239746,-0.013439024798572063
1659026350587551200,4.62555126953125,0.03153589367866516,-0.0527634471654892,0.013439024798572063
1659026350597221600,4.6352216796875,0.10056361556053162,0.17967060208320618,0.053145237267017365
1659026350606892000,4.64489208984375,0.15401428937911987,0.3672060966491699,0.09957095980644226
1659026350616562200,4.654562255859375,0.19646938145160675,0.4493674039840698,0.1640172004699707
1659026350626232600,4.664232666015625,0.2138790339231491,0.441426157951355,0.2153298407793045
1659026350635903000,4.673903076171875,0.21265730261802673,0.3937787115573883,0.23732095956802368
1659026350645573400,4.683573486328125,0.2044106274843216,0.34460410475730896,0.2364046722650528
1659026350655243800,4.693243896484375,0.1882227063179016,0.3183369040489197,0.21991132199764252
1659026350664914000,4.702913818359375,0.168675035238266,0.33024877309799194,0.20463970303535461
1659026350674584600,4.71258447265625,0.15981750190258026,0.395305871963501,0.19944734871387482
1659026350684254700,4.722254638671875,0.17234022915363312,0.47960519790649414,0.21166464686393738
1659026350693925000,4.731925048828125,0.1885281354188919,0.5290852785110474,0.2257145345211029
1659026350703595500,4.741595458984375,0.19738568365573883,0.5205331444740295,0.23487751185894012
1659026350713266000,4.751265869140625,0.19616395235061646,0.4753291606903076,0.24526220560073853
1659026350722936300,4.760936279296875,0.17936517298221588,0.48357582092285156,0.24404047429561615
1659026350732606500,4.7706064453125,0.16103923320770264,0.5541307330131531,0.22876885533332825
1659026350742276900,4.78027685546875,0.14546217024326324,0.6304888129234314,0.2055560052394867
1659026350751947300,4.789947265625,0.12805253267288208,0.664391815662384,0.17073670029640198
1659026350761617700,4.79961767578125,0.11125374585390091,0.6369028687477112,0.12400554865598679
1659026350771288000,4.8092880859375,0.12255474925041199,0.5651262998580933,0.08032871782779694
1659026350780958200,4.818958251953125,0.17936517298221588,0.5055669546127319,0.04673115536570549
1659026350790628600,4.828628662109375,0.26702427864074707,0.5128973126411438,0.029016077518463135
1659026350800299000,4.838299072265625,0.3577376902103424,0.5932260751724243,0.020158538594841957
1659026350809969400,4.847969482421875,0.42615455389022827,0.7102066874504089,0.014660755172371864
1659026350819639800,4.857639892578125,0.4450913369655609,0.8042798638343811,0.02718348242342472
1659026350829310200,4.867310302734375,0.42248934507369995,0.8055015802383423,0.07116574794054031
1659026350838980400,4.87698046875,0.38217228651046753,0.7413607835769653,0.12492185086011887
1659026350848650800,4.886650634765625,0.3287216126918793,0.626518189907074,0.16340632736682892
1659026350858321200,4.896321044921875,0.26244276762008667,0.4811323583126068,0.2052505612373352
1659026350867991600,4.905991455078125,0.20135630667209625,0.3430769443511963,0.2360992431640625
1659026350877662000,4.915661865234375,0.1631772518157959,0.2612210512161255,0.24770566821098328
1659026350887332000,4.92533203125,0.17172935605049133,0.3015381395816803,0.25381430983543396
1659026350897002500,4.93500244140625,0.2294560819864273,0.4353175163269043,0.26908594369888306
1659026350906673000,4.9446728515625,0.3183369040489197,0.5773435831069946,0.30115634202957153
1659026350916343300,4.95434326171875,0.3992764949798584,0.6228529810905457,0.3481929302215576
1659026350926013700,4.964013671875,0.44784024357795715,0.5904771685600281,0.36712974309921265
1659026350935683800,4.973683837890625,0.4551706314086914,0.5718457698822021,0.364991694688797
1659026350945354200,4.983354248046875,0.3571268320083618,0.5183951258659363,0.3393353819847107
1659026350955024600,4.993024658203125,0.17203480005264282,0.3635408878326416,0.3087921440601349
1659026350964695000,5.002695068359375,0.017486004158854485,0.16684244573116302,0.29535311460494995
1659026350974365400,5.012365478515625,-0.03657552972435951,0.08315397053956985,0.30604326725006104
1659026350984035800,5.022035888671875,0.0025198173243552446,0.13568833470344543,0.3026835024356842
1659026350993706200,5.031706298828125,0.08743002265691757,0.2346484363079071,0.27091851830482483
1659026351003376400,5.04137646484375,0.16592614352703094,0.3058141767978668,0.23457208275794983
1659026351013046800,5.051046875,0.20074543356895447,0.3543779253959656,0.20189081132411957
1659026351022717200,5.06071728515625,0.1989128440618515,0.44814568758010864,0.18875721096992493
1659026351032387600,5.0703876953125,0.189444437623024,0.6149117350578308,0.23915356397628784
1659026351042058000,5.08005810546875,0.15981750190258026,0.7804561257362366,0.3271180987358093
1659026351051728100,5.08972802734375,0.05566505342721939,0.7755692005157471,0.36254823207855225
1659026351061398500,5.0993984375,-0.07689260691404343,0.5761218667030334,0.28069236874580383
1659026351071069000,5.10906884765625,-0.13858994841575623,0.29848378896713257,0.11575887352228165
1659026351080739300,5.1187392578125,-0.1401171088218689,0.024816380813717842,-0.07971785217523575
1659026351090409700,5.12840966796875,-0.1395062506198883,-0.18990258872509003,-0.2309068888425827
1659026351100079900,5.138079833984375,-0.13339759409427643,-0.31665703654289246,-0.2715294063091278
1659026351109750300,5.147750244140625,-0.10804671049118042,-0.36766424775123596,-0.19822561740875244
1659026351119420700,5.157420654296875,-0.072921983897686,-0.29588761925697327,-0.05894844979047775
1659026351129091000,5.167091064453125,-0.10041090101003647,-0.17249293625354767,0.06627883017063141
1659026351138761500,5.176761474609375,-0.16210824251174927,-0.13156500458717346,0.12553271651268005
1659026351148432000,5.186431884765625,-0.1303432732820511,-0.13339759409427643,0.09926552325487137
1659026351158102000,5.19610205078125,0.04528035223484039,-0.08819360285997391,0.001832594396546483
1659026351167772400,5.2057724609375,0.2343430072069168,0.024205517023801804,-0.09834922850131989
1659026351177442800,5.21544287109375,0.32016950845718384,0.2804632782936096,-0.15668681263923645
1659026351187113200,5.22511328125,0.24900375306606293,0.6775254011154175,-0.18417572975158691
1659026351196783600,5.23478369140625,0.07826705276966095,1.0849722623825073,-0.1902843713760376
1659026351206453800,5.244453857421875,-0.057955797761678696,1.3164899349212646,-0.1853974610567093
1659026351216124200,5.254124267578125,-0.08239039033651352,1.2972477674484253,-0.18234314024448395
1659026351225794600,5.263794677734375,-0.01030834298580885,1.162551999092102,-0.17226386070251465
1659026351235465000,5.27346484375,0.08529199659824371,1.1338413953781128,-0.11362084746360779
1659026351245135400,5.28313525390625,0.10209077596664429,1.3067160844802856,-0.022296564653515816
1659026351254805500,5.292805419921875,-0.014889828860759735,1.5684716701507568,0.06017018109560013
1659026351264476000,5.302475830078125,-0.23419028520584106,1.7963242530822754,0.08277218043804169
1659026351274146300,5.312146240234375,-0.488004595041275,1.883067011833191,-0.028099779039621353
1659026351283816700,5.321816650390625,-0.6905062794685364,1.7773873805999756,-0.21349723637104034
1659026351293487000,5.331487060546875,-0.769002377986908,1.5693880319595337,-0.3637699782848358
1659026351303157500,5.341157470703125,-0.7360156774520874,1.2047016620635986,-0.4401280879974365
1659026351312828000,5.350827880859375,-0.685924768447876,0.7047088742256165,-0.49632763862609863
1659026351322498000,5.360498046875,-0.6449968218803406,0.16592614352703094,-0.5564978122711182
1659026351332168400,5.37016845703125,-0.5997928380966187,-0.3413970470428467,-0.6554579138755798
1659026351341838800,5.3798388671875,-0.5521454215049744,-0.7036398649215698,-0.8536835312843323
1659026351351509200,5.38950927734375,-0.4938078224658966,-0.9766964316368103,-1.1441497802734375
1659026351361179600,5.3991796875,-0.42508551478385925,-1.2250128984451294,-1.4856231212615967
1659026351370849800,5.408849853515625,-0.3401753306388855,-1.3496294021606445,-1.8057162761688232
1659026351380520200,5.418520263671875,-0.2690095901489258,-1.4684425592422485,-1.9938626289367676
1659026351390190600,5.428190673828125,-0.2115882933139801,-1.610774040222168,-1.981034517288208
1659026351399861000,5.437861083984375,-0.11995857208967209,-1.7665445804595947,-1.7501275539398193
1659026351409531400,5.447531494140625,-0.0888044685125351,-1.9769874811172485,-1.4278963804244995
1659026351419201500,5.457201416015625,-0.23541201651096344,-2.247600555419922,-1.1536180973052979
1659026351428872000,5.466871826171875,-0.33773186802864075,-2.3554182052612305,-0.925460159778595
1659026351438542300,5.476542236328125,-0.335288405418396,-2.465679407119751,-0.8729257583618164
1659026351448212700,5.486212646484375,-0.23663374781608582,-2.616868257522583,-0.9728021621704102
1659026351457883100,5.495883056640625,-0.06375901401042938,-2.7185773849487305,-1.036637544631958
1659026351467553500,5.505553466796875,0.1534034162759781,-2.648022413253784,-0.9596685767173767
1659026351477223700,5.5152236328125,0.3165042996406555,-2.4140613079071045,-0.8539889454841614
1659026351486894000,5.52489404296875,0.36659523844718933,-1.9757658243179321,-0.7541125416755676
1659026351496564500,5.534564453125,0.3589594066143036,-1.3581814765930176,-0.6386591196060181
1659026351506235000,5.54423486328125,0.3262781500816345,-0.8200095891952515,-0.5647444725036621
1659026351515905300,5.5539052734375,0.2960403561592102,-0.4779253304004669,-0.5161807537078857
1659026351525575400,5.563575439453125,0.22182027995586395,-0.3136027157306671,-0.46059203147888184
1659026351535245800,5.573245849609375,0.09964732080698013,-0.23999349772930145,-0.4013381600379944
1659026351544916200,5.582916259765625,-0.024052800610661507,-0.22838707268238068,-0.38789913058280945
1659026351554586600,5.592586669921875,-0.0576503649353981,-0.16882775723934174,-0.3946186602115631
1659026351564257000,5.602257080078125,-0.06742420047521591,-0.14805835485458374,-0.462424635887146
1659026351573927200,5.61192724609375,-0.025274530053138733,0.010766491293907166,-0.5513054728507996
1659026351583597600,5.62159765625,0.06818778067827225,0.32994332909584045,-0.5662716627120972
1659026351593268000,5.63126806640625,0.13904809951782227,0.5220603346824646,-0.5571087002754211
1659026351602938400,5.6409384765625,0.17997603118419647,0.6081922650337219,-0.5024362802505493
1659026351612608800,5.65060888671875,0.19738568365573883,0.6845503449440002,-0.323452889919281
1659026351622279200,5.660279052734375,0.12591449916362762,0.7755692005157471,-0.13927717506885529
1659026351631949600,5.669949462890625,0.03153589367866516,0.8812488317489624,0.04276053607463837
1659026351641619700,5.67961962890625,-0.057955797761678696,1.0067814588546753,0.20799945294857025
1659026351651290000,5.6892900390625,-0.15905392169952393,1.1796562671661377,0.3231474757194519
1659026351660960500,5.69896044921875,-0.22533275187015533,1.3192389011383057,0.4120282828807831
1659026351670631000,5.708630859375,-0.22441644966602325,1.4142283201217651,0.5039634704589844
1659026351680301300,5.71830126953125,-0.21342088282108307,1.4453824758529663,0.5702422857284546
1659026351689971500,5.727971435546875,-0.18959715962409973,1.431943416595459,0.6252201199531555
1659026351699641900,5.737641845703125,-0.1446985900402069,1.3836851119995117,0.6505709886550903
1659026351709312300,5.747312255859375,-0.09094249457120895,1.3146573305130005,0.6175842881202698
1659026351718982700,5.756982666015625,-0.03168861195445061,1.3073270320892334,0.5601630210876465
1659026351728653000,5.766653076171875,-0.0057268571108579636,1.4298053979873657,0.5222893953323364
1659026351738323200,5.7763232421875,-0.072921983897686,1.5217405557632446,0.5375609993934631
1659026351747993900,5.785993896484375,-0.18837542831897736,0.12713623046875,0.48441576957702637
1659026351757664000,5.7956640625,-0.11110103130340576,-1.3792563676834106,0.3494146466255188
1659026351767334400,5.80533447265625,0.055970486253499985,-1.24058997631073,0.3170388340950012
1659026351777004800,5.8150048828125,0.0006872228696011007,-1.0793217420578003,0.23548837006092072
1659026351786675200,5.82467529296875,-0.060093823820352554,-1.1291072368621826,0.23945899307727814
1659026351796345300,5.834345458984375,-0.08513928204774857,-1.0780999660491943,0.23487751185894012
1659026351806015700,5.844015625,-0.08208495378494263,-1.019762396812439,0.1951712965965271
1659026351815686100,5.85368603515625,-0.03627009689807892,-1.0246492624282837,0.17073670029640198
1659026351825356500,5.8633564453125,-0.0005345066892914474,-1.0808488130569458,0.10629047453403473
1659026351835027000,5.87302685546875,0.025732679292559624,-1.0780999660491943,0.05711585655808449
1659026351844697000,5.882697021484375,0.04192059487104416,-1.0912336111068726,0.041844237595796585
1659026351854367500,5.892367431640625,0.055970486253499985,-0.9110284447669983,0.06719512492418289
1659026351864038000,5.902037841796875,0.05627591907978058,-0.854218065738678,0.12980876863002777
1659026351873708300,5.911708251953125,0.03275762498378754,-0.8416953086853027,0.19120067358016968
1659026351883378700,5.921378662109375,0.008933897130191326,-0.7170788645744324,0.24831652641296387
1659026351893048800,5.931048828125,0.024510949850082397,-0.46082112193107605,0.31001389026641846
1659026351902719500,5.940719482421875,0.04344775900244713,-0.16791145503520966,0.35277441143989563
1659026351912389600,5.9503896484375,0.05933023989200592,0.07979421317577362,0.374765545129776
1659026351922060000,5.96006005859375,0.09201150387525558,0.2545015513896942,0.3897317349910736
1659026351931730400,5.96973046875,0.11094831675291061,0.3791179656982422,0.3992001414299011
1659026351941400800,5.97940087890625,0.07735075056552887,0.49487683176994324,0.3863719701766968
1659026351951071200,5.9890712890625,0.021456625312566757,0.5871174335479736,0.36651885509490967
1659026351960741400,5.998741455078125,-0.02130390889942646,0.6262127757072449,0.36621344089508057
1659026351970411800,6.008411865234375,-0.060093823820352554,0.5727620720863342,0.35705047845840454
1659026351980082200,6.018082275390625,-0.08300124853849411,0.40630143880844116,0.32620179653167725
1659026351989752600,6.027752685546875,-0.053985174745321274,0.18730641901493073,0.27580544352531433
1659026351999423000,6.037423095703125,0.018402300775051117,0.1011744812130928,0.18142683804035187
1659026352009093000,6.047093017578125,0.09445496648550034,0.131717711687088,0.04917461425065994
1659026352018763500,6.056763427734375,0.1430187225341797,0.1476002037525177,-0.07238747924566269
1659026352028434000,6.066433837890625,0.16470441222190857,0.11339177191257477,-0.1444695144891739
1659026352038104300,6.076104248046875,0.15157082676887512,0.03733910992741585,-0.16218459606170654
1659026352047774700,6.085774658203125,0.09750928729772568,-0.06589704006910324,-0.14019346237182617
1659026352057444900,6.09544482421875,0.025121813639998436,-0.18868085741996765,-0.09865466505289078
1659026352067115500,6.105115478515625,-0.022220205515623093,-0.3139081299304962,-0.044898562133312225
1659026352076785700,6.11478564453125,-0.0423787422478199,-0.4119519293308258,0.013133592903614044
1659026352086456000,6.1244560546875,-0.03840812295675278,-0.49197521805763245,0.050090912729501724
1659026352096126500,6.13412646484375,-0.029856016859412193,-0.5668061375617981,0.04917461425065994
1659026352105796900,6.143796875,-0.026190826669335365,-0.6605738997459412,0.020158538594841957
1659026352115467000,6.153467041015625,-0.01672242395579815,-0.769002377986908,-0.018631376326084137
1659026352125137400,6.163137451171875,-0.001450803829357028,-0.8655190467834473,-0.0769689604640007
1659026352134807800,6.172807861328125,0.031230462715029716,-0.9351575970649719,-0.14294235408306122
1659026352144478200,6.182478271484375,0.07490729540586472,-0.9742529392242432,-0.18784092366695404
1659026352154148600,6.192148681640625,0.09720385819673538,-0.9770018458366394,-0.20830489695072174
1659026352163818800,6.20181884765625,0.08712458610534668,-0.9534835815429688,-0.21319180727005005
1659026352173489200,6.2114892578125,0.06299543380737305,-0.8850666880607605,-0.2009745091199875
1659026352183159600,6.22115966796875,0.028787001967430115,-0.7778599262237549,-0.1701258420944214
1659026352192830000,6.230829833984375,-0.0057268571108579636,-0.6648499369621277,-0.10690133273601532
1659026352202500400,6.240500244140625,-0.030466880649328232,-0.5710822343826294,-0.043371398001909256
1659026352212170500,6.25017041015625,-0.0371863916516304,-0.4837285578250885,0.0030543238390237093
1659026352221841200,6.259841064453125,-0.02741255611181259,-0.3914879560470581,0.03787361457943916
1659026352231511300,6.26951123046875,-0.019471315667033195,-0.3206276595592499,0.04978547990322113
1659026352241181700,6.279181640625,-0.009392046369612217,-0.2778671085834503,0.05039634555578232
1659026352250852000,6.28885205078125,0.014431680552661419,-0.22533275187015533,0.05192350596189499
1659026352260522500,6.2985224609375,0.04283689334988594,-0.16363540291786194,0.04428769648075104
1659026352270193000,6.30819287109375,0.06849320977926254,-0.10499238222837448,0.030543239787220955
1659026352279863000,6.317863037109375,0.0862082913517952,-0.06559160351753235,0.019242240116000175
1659026352289533400,6.327533447265625,0.095982126891613,-0.050930850207805634,0.020769402384757996
1659026352299203800,6.337203857421875,0.08804088830947876,-0.0683404952287674,0.03543015569448471
1659026352308874200,6.346874267578125,0.05566505342721939,-0.08697187155485153,0.04978547990322113
1659026352318544600,6.356544677734375,0.02176205813884735,-0.10835213959217072,0.061391908675432205
1659026352328214800,6.36621484375,0.0016035200096666813,-0.13187043368816376,0.06414080411195755
1659026352337885200,6.37588525390625,-0.000839939049910754,-0.14592032134532928,0.06719512492418289
1659026352347555600,6.3855556640625,-0.0011453714687377214,-0.1654679924249649,0.06414080411195755
1659026352357226000,6.39522607421875,-0.0011453714687377214,-0.17463096976280212,0.06597339361906052
1659026352366896400,6.404896484375,-0.001450803829357028,-0.19998185336589813,0.07757982611656189
1659026352376566500,6.41456640625,-0.003283398225903511,-0.24701844155788422,0.08613193035125732
1659026352386237200,6.4242373046875,-0.008781181648373604,-0.28580835461616516,0.09071341902017593
1659026352395907300,6.4339072265625,-0.00511599238961935,-0.284586638212204,0.08552107214927673
1659026352405577700,6.44357763671875,0.01626427471637726,-0.27084216475486755,0.07513637095689774
1659026352415248100,6.453248046875,0.04833467677235603,-0.2570977210998535,0.06047561392188072
1659026352424918500,6.46291845703125,0.06696604937314987,-0.2534325122833252,0.04581485688686371
1659026352434588700,6.472588623046875,0.06818778067827225,-0.2378554791212082,0.036651886999607086
1659026352444259000,6.482259033203125,0.06146826967597008,-0.23388485610485077,0.04214967042207718
1659026352453929500,6.491929443359375,0.041615162044763565,-0.2580140233039856,0.05528326332569122
1659026352463599900,6.501599853515625,0.02023489587008953,-0.26687154173851013,0.06475166976451874
1659026352473270300,6.511270263671875,0.01259908638894558,-0.24365869164466858,0.06291907280683517
1659026352482940400,6.5209404296875,0.024510949850082397,-0.1813504844903946,0.04520399495959282
1659026352492610800,6.53061083984375,0.06238456442952156,-0.057039499282836914,0.03634645417332649
1659026352502281200,6.54028125,0.0965929925441742,0.06330086290836334,0.02626718580722809
1659026352511951600,6.54995166015625,0.1118646115064621,0.12041672319173813,-0.0030543238390237093
1659026352521622000,6.5596220703125,0.12713623046875,0.1689804643392563,-0.029932374134659767
1659026352531292200,6.569292236328125,0.13568833470344543,0.22212570905685425,-0.04764745384454727
1659026352540962800,6.578962890625,0.13874267041683197,0.23312127590179443,-0.04673115536570549
1659026352550633000,6.588633056640625,0.13416117429733276,0.24808746576309204,-0.025350889191031456
1659026352560303400,6.598303466796875,0.11522436887025833,0.26946771144866943,0.005192350596189499
1659026352569973800,6.607973876953125,0.08040507882833481,0.2755763828754425,0.043982263654470444
1659026352579644200,6.61764404296875,0.043753188103437424,0.26427537202835083,0.08124501258134842
1659026352589314600,6.627314453125,0.01565340906381607,0.24900375306606293,0.10567960888147354
1659026352598984700,6.636984619140625,-0.003283398225903511,0.24289511144161224,0.10567960888147354
1659026352608655000,6.646655029296875,-0.01763872057199478,0.2651916742324829,0.08796452730894089
1659026352618325500,6.656325439453125,-0.027717988938093185,0.31986406445503235,0.06872228533029556
1659026352627996000,6.665995849609375,-0.040546149015426636,0.38064512610435486,0.043982263654470444
1659026352637666300,6.675666259765625,-0.04818195849657059,0.4136318266391754,0.024740023538470268
1659026352647336400,6.68533642578125,-0.04512763395905495,0.44784024357795715,0.023212861269712448
1659026352657006800,6.6950068359375,-0.04818195849657059,0.4664716124534607,0.03848448023200035
1659026352666677200,6.70467724609375,-0.06498073786497116,0.44814568758010864,0.0668896958231926
1659026352676347600,6.71434765625,-0.08972076326608658,0.40691229701042175,0.0925460159778595
1659026352686018000,6.72401806640625,-0.11110103130340576,0.3543779253959656,0.10598503798246384
1659026352695688200,6.733688232421875,-0.11690424382686615,0.2856556475162506,0.10201441496610641
1659026352705358600,6.743358642578125,-0.10987929999828339,0.19769111275672913,0.08093958348035812
1659026352715029000,6.753029052734375,-0.09185878932476044,0.09964732080698013,0.05742128938436508
1659026352724699400,6.762699462890625,-0.07139482349157333,-0.0005345066892914474,0.035124726593494415
1659026352734369800,6.772369873046875,-0.05612320080399513,-0.093691386282444,0.008857538923621178
1659026352744040200,6.782040283203125,-0.04298960790038109,-0.15722131729125977,-0.01435532234609127
1659026352753710300,6.79171044921875,-0.03779725730419159,-0.18929173052310944,-0.03817904740571976
1659026352763380700,6.801380615234375,-0.03535379841923714,-0.1963166743516922,-0.06017018109560013
1659026352773051100,6.811051025390625,-0.030772313475608826,-0.19570580124855042,-0.06933315098285675
1659026352782721500,6.820721435546875,-0.02741255611181259,-0.1807396113872528,-0.06902772188186646
1659026352792392000,6.830391845703125,-0.02741255611181259,-0.1706603467464447,-0.06047561392188072
1659026352802062000,6.84006201171875,-0.034437503665685654,-0.16730059683322906,-0.0461202897131443
1659026352811732500,6.849732421875,-0.04909825697541237,-0.1712712198495865,-0.03298669680953026
1659026352821403000,6.85940283203125,-0.0576503649353981,-0.16882775723934174,-0.01802051067352295
1659026352831073300,6.8690732421875,-0.06589704006910324,-0.16913318634033203,-0.00946840364485979
1659026352840743700,6.87874365234375,-0.0628427118062973,-0.1813504844903946,-0.007024944759905338
1659026352850413800,6.888413818359375,-0.043600473552942276,-0.19814926385879517,-0.005803215317428112
1659026352860084500,6.89808447265625,-0.024052800610661507,-0.21006113290786743,-0.011300998739898205
1659026352869754600,6.907754638671875,-0.01030834298580885,-0.21494804322719574,-0.012522728182375431
1659026352879425000,6.917425048828125,-0.0057268571108579636,-0.21403174102306366,-0.01588248461484909
1659026352889095400,6.927095458984375,-0.009086613543331623,-0.21281002461910248,-0.019242240116000175
1659026352898765800,6.936765869140625,-0.015806125476956367,-0.22472187876701355,-0.021380268037319183
1659026352908436200,6.946436279296875,-0.025274530053138733,-0.24701844155788422,-0.027488915249705315
1659026352918106400,6.9561064453125,-0.02802342176437378,-0.2677878439426422,-0.034208428114652634
1659026352927776800,6.96577685546875,-0.0295505840331316,-0.28000515699386597,-0.04764745384454727
1659026352937447200,6.975447265625,-0.027107125148177147,-0.29161158204078674,-0.05711585655808449
1659026352947117600,6.98511767578125,-0.028328854590654373,-0.3087157905101776,-0.0616973415017128
1659026352956788000,6.9947880859375,-0.0371863916516304,-0.33315038681030273,-0.05955931544303894
1659026352966458000,7.0044580078125,-0.0576503649353981,-0.3591121435165405,-0.049480047076940536
1659026352976128500,7.01412841796875,-0.08972076326608658,-0.39912378787994385,-0.03390299528837204
1659026352985799000,7.023798828125,-0.11873684078454971,-0.4580722153186798,-0.0204639695584774
1659026352995469300,7.03346923828125,-0.13889537751674652,-0.5078576803207397,-0.018325943499803543
1659026353005139700,7.0431396484375,-0.14103341102600098,-0.537790060043335,-0.029626941308379173
1659026353014810000,7.05281005859375,-0.13339759409427643,-0.5518399477005005,-0.04428769648075104
1659026353024480300,7.062480224609375,-0.12301289290189743,-0.5613083839416504,-0.056199558079242706
1659026353034150700,7.072150634765625,-0.11049016565084457,-0.575663685798645,-0.06200277432799339
1659026353043821000,7.081821044921875,-0.10071633011102676,-0.5851321220397949,-0.06872228533029556
1659026353053491500,7.091491455078125,-0.09430225193500519,-0.5677224397659302,-0.07483093440532684
1659026353063161900,7.101161865234375,-0.08666644245386124,-0.5161044001579285,-0.07635809481143951
1659026353072832000,7.11083203125,-0.07567087560892105,-0.4339430630207062,-0.061391908675432205
1659026353082502400,7.12050244140625,-0.0683404952287674,-0.3093266487121582,-0.033597562462091446
1659026353092172800,7.1301728515625,-0.06986765563488007,-0.12148573249578476,0.008552107028663158
1659026353101843200,7.13984326171875,-0.07444914430379868,0.08223766833543777,0.06719512492418289
1659026353111513600,7.149513671875,-0.08452841639518738,0.26763513684272766,0.13561198115348816
1659026353121183700,7.159183837890625,-0.10041090101003647,0.45822495222091675,0.2009745091199875
1659026353130854100,7.168854248046875,-0.11812597513198853,0.6781362891197205,0.26480987668037415
1659026353140524500,7.178524658203125,-0.1443931609392166,0.9249256253242493,0.3228420317173004
1659026353150195000,7.18819482421875,-0.1816559135913849,1.1866811513900757,0.39248061180114746
1659026353159865300,7.197865234375,-0.19753839075565338,1.3888773918151855,0.4825831651687622
1659026353169535500,7.207535400390625,-0.1810450553894043,1.4689006805419922,0.5568032264709473
1659026353179206100,7.2172060546875,-0.13125957548618317,1.4646246433258057,0.5867356061935425
1659026353188876300,7.226876220703125,-0.05062541738152504,1.4789799451828003,0.5775726437568665
1659026353198546700,7.236546630859375,0.04589121788740158,1.496389627456665,0.5403099060058594
1659026353208217000,7.246217041015625,0.12805253267288208,1.4481313228607178,0.47036588191986084
1659026353217887500,7.255887451171875,0.19005531072616577,1.354974389076233,0.37781986594200134
1659026353227558000,7.265557861328125,0.2603047490119934,1.2303580045700073,0.272751122713089
1659026353237228000,7.27522802734375,0.37514734268188477,1.1060470342636108,0.18570289015769958
1659026353246898400,7.2848984375,0.5205331444740295,1.0189988613128662,0.13439024984836578
1659026353256568800,7.29456884765625,0.673249363899231,0.9328668713569641,0.11087195575237274
1659026353266239200,7.3042392578125,0.8357393741607666,0.8650608658790588,0.12064579129219055
1659026353275909600,7.31390966796875,0.9811251759529114,0.7987820506095886,0.1597411334514618
1659026353285579800,7.323579833984375,1.1057416200637817,0.7480802536010742,0.20830489695072174
1659026353295250200,7.333250244140625,1.237993836402893,0.7300597429275513,0.26022839546203613
1659026353304920600,7.342920654296875,1.3726894855499268,0.7236456871032715,0.2822195291519165
1659026353314591000,7.352591064453125,1.5098286867141724,0.6958513259887695,0.2776380479335785
1659026353324261000,7.36226123046875,1.6368885040283203,0.6249909996986389,0.2574795186519623
1659026353333931800,7.371931884765625,1.7520365715026855,0.5300015807151794,0.2364046722650528
1659026353343602000,7.381601806640625,1.8726823329925537,0.4307360351085663,0.21685700118541718
1659026353353272300,7.391272216796875,2.004934549331665,0.35132360458374023,0.20311254262924194
1659026353362942700,7.400942626953125,2.1405465602874756,0.2969566285610199,0.19639302790164948
1659026353372613000,7.410613037109375,2.2666900157928467,0.25786128640174866,0.18356487154960632
1659026353382283500,7.420283447265625,2.381838083267212,0.20685409009456635,0.17043127119541168
1659026353391953700,7.42995361328125,2.493320941925049,0.15157082676887512,0.16157373785972595
1659026353401624000,7.4396240234375,2.566930055618286,0.10178534686565399,0.14782927930355072
1659026353411294500,7.44929443359375,2.60022234916687,0.08956804871559143,0.1438586562871933
1659026353420964900,7.45896484375,2.613355875015259,0.1219438835978508,0.1536324918270111
1659026353430635300,7.46863525390625,2.6038875579833984,0.15095995366573334,0.16218459606170654
1659026353440305400,7.478305419921875,2.6063308715820312,0.16959133744239807,0.1695149689912796
1659026353449975800,7.487975830078125,2.653672933578491,0.20685409009456635,0.17562362551689148
1659026353459646200,7.497646240234375,2.694600820541382,0.20777037739753723,0.1750127524137497
1659026353469316600,7.507316650390625,2.7321691513061523,0.17692171037197113,0.17684535682201385
1659026353478987000,7.516987060546875,2.783787250518799,0.15920662879943848,0.16859868168830872
1659026353488657200,7.5266572265625,2.840597629547119,0.1842520833015442,0.1380554437637329
1659026353498327600,7.53632763671875,2.8980188369750977,0.23220497369766235,0.1078176349401474
1659026353507998000,7.545998046875,2.9474990367889404,0.23617559671401978,0.07605266571044922
1659026353517668400,7.55566845703125,2.990870237350464,0.18119776248931885,0.03817904740571976
1659026353527338800,7.5653388671875,3.0376014709472656,0.11125374585390091,-0.013439024798572063
1659026353537009200,7.575009033203125,3.0873868465423584,0.08559742569923401,-0.07360920310020447
1659026353546679300,7.58467919921875,3.1551928520202637,0.11614066362380981,-0.1484401375055313
1659026353556349700,7.594349609375,3.2407140731811523,0.19585852324962616,-0.22999058663845062
1659026353566020000,7.60402001953125,3.3222644329071045,0.2914588451385498,-0.3042106628417969
1659026353575690500,7.6136904296875,3.379074811935425,0.39713847637176514,-0.35155269503593445
1659026353585361000,7.62336083984375,3.415726661682129,0.5397753715515137,-0.3503309488296509
1659026353595031000,7.633031005859375,3.4230570793151855,0.7163153290748596,-0.3069595396518707
1659026353604701400,7.642701416015625,3.401676893234253,0.8919389247894287,-0.24251331388950348
1659026353614371800,7.652371826171875,3.331732749938965,1.0037271976470947,-0.1737910360097885
1659026353624042200,7.662042236328125,3.253542184829712,1.0751984119415283,-0.07513637095689774
1659026353633712600,7.671712646484375,3.1762678623199463,1.1133774518966675,0.01954767294228077
1659026353643382800,7.6813828125,3.116708517074585,1.1375066041946411,0.09682206809520721
1659026353653053400,7.691053466796875,3.0733370780944824,1.1692715883255005,0.1539379209280014
1659026353662723600,7.7007236328125,3.033630847930908,1.1952333450317383,0.19303326308727264
1659026353672394000,7.71039404296875,2.996673583984375,1.1875975131988525,0.2098320573568344
1659026353682064400,7.720064453125,2.974682331085205,1.108185052871704,0.1997527778148651
1659026353691734800,7.72973486328125,2.9752931594848633,0.9850957989692688,0.15760311484336853
1659026353701405200,7.7394052734375,3.00461483001709,0.8574250936508179,0.08521563559770584
1659026353711075300,7.749075439453125,3.052262306213379,0.7447205185890198,0.001832594396546483
1659026353720745700,7.758745849609375,3.102353096008301,0.6008618474006653,-0.07055488228797913
1659026353730416000,7.768416015625,3.1286203861236572,0.42126762866973877,-0.12278381735086441
1659026353740086500,7.77808642578125,3.163745164871216,0.2658025324344635,-0.15577052533626556
1659026353749756700,7.787756591796875,3.2379651069641113,0.14393500983715057,-0.185092031955719
1659026353759427000,7.797427001953125,3.2657594680786133,0.04222602769732475,-0.22510367631912231
1659026353769097500,7.807097412109375,3.248655319213867,-0.03535379841923714,-0.2419024556875229
1659026353778768000,7.816767822265625,3.2324674129486084,-0.021609341725707054,-0.231212317943573
1659026353788438300,7.826438232421875,3.2355215549468994,0.10514509677886963,-0.20738859474658966
1659026353798108400,7.8361083984375,3.2049784660339355,0.30398157238960266,-0.2006690800189972
1659026353807778800,7.84577880859375,3.1606907844543457,0.5092321634292603,-0.210442915558815
1659026353817449200,7.85544921875,3.1234278678894043,0.6802743077278137,-0.23273947834968567
1659026353827119600,7.86511962890625,3.105102062225342,0.8036689758300781,-0.24831652641296387
1659026353836790000,7.8747900390625,3.0846381187438965,0.8830813765525818,-0.2513708472251892
1659026353846460400,7.88446044921875,3.013777732849121,0.9298125505447388,-0.22266021370887756
1659026353856130800,7.894130859375,2.904127597808838,0.9478330612182617,-0.1536324918270111
1659026353865801000,7.903801025390625,2.7865359783172607,0.9615775346755981,-0.05803215503692627
1659026353875471400,7.913471435546875,2.678718328475952,0.9719622135162354,0.039706211537122726
1659026353885141800,7.923141845703125,2.5818963050842285,1.0208313465118408,0.10934479534626007
1659026353894812200,7.932812255859375,2.516228437423706,1.10635244846344,0.12247838824987411
1659026353904482600,7.942482666015625,2.49606990814209,1.1665226221084595,0.060781046748161316
1659026353914152700,7.952152587890625,2.507676362991333,1.1701878309249878,-0.0513126403093338
1659026353923823000,7.961822998046875,2.5256967544555664,1.1197915077209473,-0.18295399844646454
1659026353933493500,7.971493408203125,2.5394413471221924,1.0480148792266846,-0.31062474846839905
1659026353943164000,7.981163818359375,2.5455498695373535,0.9612720608711243,-0.42271843552589417
1659026353952834300,7.990834228515625,2.5363869667053223,0.8366556763648987,-0.509155809879303
1659026353962504400,8.00050439453125,2.5092034339904785,0.6778308153152466,-0.5412262082099915
1659026353972174800,8.0101748046875,2.468275547027588,0.5235874652862549,-0.5048797130584717
1659026353981845200,8.01984521484375,2.4148247241973877,0.41851872205734253,-0.4272999167442322
1659026353991515600,8.029515625,2.359541654586792,0.3433823585510254,-0.33658650517463684
1659026354001186000,8.03918603515625,2.3158648014068604,0.3073413372039795,-0.25350889563560486
1659026354010856400,8.0488564453125,2.2877650260925293,0.30428701639175415,-0.1945604383945465
1659026354020526600,8.058526611328125,2.2776856422424316,0.29329144954681396,-0.17043127119541168
1659026354030197000,8.068197021484375,2.2792129516601562,0.2551124095916748,-0.1844811588525772
1659026354039867400,8.077867431640625,2.289902925491333,0.20166173577308655,-0.21135921776294708
1659026354049537800,8.087537841796875,2.292346477508545,0.15493057668209076,-0.23732095956802368
1659026354059208200,8.097208251953125,2.2822670936584473,0.12469277530908585,-0.26022839546203613
1659026354068878300,8.10687841796875,2.2633304595947266,0.1118646115064621,-0.2721402645111084
1659026354078548700,8.116548828125,2.230648994445801,0.10178534686565399,-0.272751122713089
1659026354088219100,8.12621923828125,2.1848342418670654,0.10483966767787933,-0.26542073488235474
1659026354097889500,8.1358896484375,2.141462802886963,0.10911571979522705,-0.2608392536640167
1659026354107560000,8.145559814453126,2.1213042736053467,0.11308634281158447,-0.2461785078048706
1659026354117230000,8.15522998046875,2.1118359565734863,0.1320231556892395,-0.21899501979351044
1659026354126900500,8.164900390625,2.0987021923065186,0.14637847244739532,-0.18631376326084137
1659026354136571000,8.17457080078125,2.083430767059326,0.14851650595664978,-0.14538581669330597
1659026354146241300,8.1842412109375,2.068769931793213,0.13965895771980286,-0.10201441496610641
1659026354155911700,8.19391162109375,2.0473897457122803,0.13080142438411713,-0.06750056147575378
1659026354165582000,8.20358203125,2.021122455596924,0.12286017835140228,-0.04734202101826668
1659026354175252200,8.213252197265625,1.9942444562911987,0.0965929925441742,-0.04367683082818985
1659026354184922600,8.222922607421875,1.9710315465927124,0.0602465383708477,-0.050090912729501724
1659026354194593000,8.232593017578125,1.9496513605117798,0.025732679292559624,-0.06108647957444191
1659026354204263400,8.242263427734375,1.9252166748046875,-0.007864884100854397,-0.0720820426940918
1659026354213933800,8.251933837890626,1.9016984701156616,-0.029856016859412193,-0.0772743970155716
1659026354223604000,8.26160400390625,1.8797073364257812,-0.054901473224163055,-0.0922405794262886
1659026354233274400,8.2712744140625,1.8659628629684448,-0.08972076326608658,-0.1230892539024353
1659026354242944800,8.28094482421875,1.85802161693573,-0.13370302319526672,-0.1545487940311432
1659026354252615200,8.290615234375,1.846720576286316,-0.18684826791286469,-0.1585194170475006
1659026354262285600,8.30028564453125,1.8341978788375854,-0.2540434002876282,-0.12583814561367035
1659026354271955700,8.309955810546874,1.8314489126205444,-0.3310123383998871,-0.0769689604640007
1659026354281626000,8.319626220703125,1.8451933860778809,-0.4113410711288452,-0.026572618633508682
1659026354291296500,8.329296630859375,1.8913136720657349,-0.488004595041275,0.02107483521103859
1659026354300967000,8.338966796875,1.9093341827392578,-0.6318632364273071,-0.00946840364485979
1659026354310637300,8.34863720703125,1.9563708305358887,-0.6755400896072388,0.021991131827235222
1659026354320307700,8.3583076171875,2.0027966499328613,-0.6636282205581665,0.038789913058280945
1659026354329977900,8.367977783203125,2.033339738845825,-0.6740128993988037,0.018325943499803543
1659026354339648300,8.377648193359375,2.066020965576172,-0.6605738997459412,0.003665188793092966
1659026354349318700,8.387318603515626,2.0870959758758545,-0.6037634611129761,-0.013439024798572063
1659026354358989000,8.396989013671876,2.1008403301239014,-0.48708829283714294,-0.013439024798572063
1659026354368659500,8.406659423828126,2.105116367340088,-0.3609447181224823,-0.01282816007733345
1659026354378329600,8.41632958984375,2.1032838821411133,-0.25954118371009827,-0.01802051067352295
1659026354388000000,8.426,2.1038947105407715,-0.1758527010679245,-0.013133592903614044
1659026354397670400,8.43567041015625,2.102672815322876,-0.09674570709466934,-0.007330377586185932
1659026354407340800,8.4453408203125,2.091982841491699,0.002825249684974551,-0.011911863461136818
1659026354417011200,8.45501123046875,2.085263252258301,0.1369100660085678,-0.01893680728971958
1659026354426681300,8.464681396484375,2.0754895210266113,0.2813795804977417,-0.019853105768561363
1659026354436351700,8.474351806640625,2.0617449283599854,0.41790786385536194,-0.005192350596189499
1659026354446022100,8.484022216796875,2.0596070289611816,0.5312232971191406,0.010079269297420979
1659026354455692500,8.493692626953125,2.0709080696105957,0.6188823580741882,0.01282816007733345
1659026354465363000,8.503363037109375,2.0815980434417725,0.6848557591438293,0.0009162971982732415
1659026354475033000,8.513033203125,2.0840415954589844,0.7260891199111938,-0.021380268037319183
1659026354484703500,8.522703369140626,2.0840415954589844,0.7273108959197998,-0.0412333719432354
1659026354494374000,8.532373779296876,2.085874080657959,0.7047088742256165,-0.04459312930703163
1659026354504044300,8.542044189453126,2.0898447036743164,0.6796634197235107,-0.026572618633508682
1659026354513714700,8.551714599609374,2.0950372219085693,0.6775254011154175,-0.004886918235570192
1659026354523385000,8.561385009765624,2.0935099124908447,0.6934078931808472,0.010995565913617611
1659026354533055200,8.57105517578125,2.0809872150421143,0.7083740830421448,0.007330377586185932
1659026354542725600,8.5807255859375,2.0739622116088867,0.6946296095848083,0.005803215317428112
1659026354552396000,8.59039599609375,2.0794601440429688,0.6475930213928223,0.017104214057326317
1659026354562066400,8.60006640625,2.088012218475342,0.5779544115066528,0.03543015569448471
1659026354571736800,8.60973681640625,2.091372013092041,0.5113701820373535,0.05253437161445618
1659026354581407000,8.619406982421875,2.099313259124756,0.4661661982536316,0.07024945318698883
1659026354591077400,8.629077392578125,2.1182498931884766,0.4337903559207916,0.07788526266813278
1659026354600747800,8.638747802734375,2.138713836669922,0.41149377822875977,0.07452550530433655
1659026354610418200,8.648418212890626,2.1576507091522217,0.42248934507369995,0.07238747924566269
1659026354620088600,8.658088623046876,2.163454055786133,0.44722938537597656,0.07544180005788803
1659026354629758700,8.6677587890625,2.158566951751709,0.46799877285957336,0.07971785217523575
1659026354639429000,8.67742919921875,2.155818223953247,0.47441285848617554,0.08307760953903198
1659026354649099500,8.687099609375,2.164064884185791,0.474718302488327,0.08002328872680664
1659026354658770000,8.69677001953125,2.175365924835205,0.47502371668815613,0.06719512492418289
1659026354668440300,8.7064404296875,2.1845288276672363,0.48357582092285156,0.06200277432799339
1659026354678110700,8.71611083984375,2.1854450702667236,0.48418670892715454,0.06352993845939636
1659026354687780900,8.72578076171875,2.178420066833496,0.46250098943710327,0.06444623321294785
1659026354697451300,8.735451171875,2.1741440296173096,0.44386962056159973,0.05833758786320686
1659026354707121700,8.74512158203125,2.1732277870178223,0.4365392327308655,0.04550942778587341
1659026354716792000,8.7547919921875,2.172922372817993,0.4347066581249237,0.02932151034474373
1659026354726462500,8.76446240234375,2.172311544418335,0.42829257249832153,0.008552107028663158
1659026354736132600,8.774132568359375,2.15826153755188,0.41271552443504333,-0.01282816007733345
1659026354745803000,8.783802978515626,2.1426844596862793,0.40630143880844116,-0.029932374134659767
1659026354755473400,8.793473388671876,2.1396303176879883,0.3928624093532562,-0.04673115536570549
1659026354765143800,8.803143798828126,2.1429901123046875,0.37636905908584595,-0.06108647957444191
1659026354774814200,8.812814208984374,2.1384084224700928,0.36018115282058716,-0.06841685622930527
1659026354784484400,8.822484375,2.136270523071289,0.33055421710014343,-0.0616973415017128
1659026354794154800,8.83215478515625,2.124358654022217,0.2716057598590851,-0.043982263654470444
1659026354803825200,8.8418251953125,2.1075599193573,0.21540619432926178,-0.015577051788568497
1659026354813495600,8.85149560546875,2.0928990840911865,0.19585852324962616,0.007941242307424545
1659026354823166000,8.861166015625,2.088012218475342,0.2193768173456192,0.011911863461136818
1659026354832836400,8.87083642578125,2.091982841491699,0.25847217440605164,-0.000610864779446274
1659026354842506500,8.880506591796875,2.097175121307373,0.29970553517341614,-0.02107483521103859
1659026354852177000,8.890177001953125,2.097175121307373,0.32536184787750244,-0.031154103577136993
1659026354861847300,8.899847412109375,2.08556866645813,0.33574655652046204,-0.03329212963581085
1659026354871517700,8.909517578125,2.0681591033935547,0.3424660563468933,-0.032070402055978775
1659026354881188000,8.91918798828125,2.049833059310913,0.3482692837715149,-0.03695731982588768
1659026354890858200,8.928858154296876,2.0339505672454834,0.3574322462081909,-0.047952886670827866
1659026354900528600,8.938528564453126,2.023871421813965,0.3369682729244232,-0.054672397673130035
1659026354910199000,8.948198974609374,2.004934549331665,0.26274821162223816,-0.054672397673130035
1659026354919869400,8.957869384765624,1.9811108112335205,0.17020219564437866,-0.046425722539424896
1659026354929539800,8.967539794921874,1.9615631103515625,0.10545053333044052,-0.032070402055978775
1659026354939210000,8.9772099609375,1.9450697898864746,0.0755181610584259,-0.017715077847242355
1659026354948880400,8.98688037109375,1.9246058464050293,0.081015944480896,-0.0027488914784044027
1659026354958550800,8.99655078125,1.9120831489562988,0.09689842909574509,0.004581485874950886
1659026354968221200,9.00622119140625,1.9206352233886719,0.09170607477426529,0.001832594396546483
1659026354977891300,9.015891357421875,1.940793752670288,0.05994110554456711,0.004886918235570192
1659026354987562000,9.02556201171875,1.9578980207443237,0.02848157100379467,0.02718348242342472
1659026354997232000,9.035232177734375,1.9569816589355469,-0.0035888305865228176,0.06230820715427399
1659026355006902500,9.044902587890626,1.940488338470459,-0.034437503665685654,0.09621120244264603
1659026355016573000,9.054572998046876,1.9316308498382568,-0.03810269013047218,0.11392628401517868
1659026355026243300,9.064243408203126,1.9349905252456665,-0.02130390889942646,0.10751219838857651
1659026355035913700,9.073913818359374,1.9410991668701172,-0.009697478264570236,0.07910698652267456
1659026355045584000,9.083583984375,1.9472078084945679,-0.0017562361899763346,0.04001164436340332
1659026355055254300,9.093254150390624,1.959730625152588,0.014737112447619438,0.011300998739898205
1659026355064924700,9.102924560546874,1.9728641510009766,0.04192059487104416,0.0015271619195118546
1659026355074595000,9.112594970703125,1.9814162254333496,0.07521272450685501,0.000610864779446274
1659026355084265200,9.12226513671875,1.9847760200500488,0.14362958073616028,0.011606430634856224
1659026355093935600,9.131935546875,1.9808053970336914,0.2190713882446289,0.024434590712189674
1659026355103606000,9.14160595703125,1.9725587368011475,0.2801578640937805,0.03634645417332649
1659026355113276400,9.1512763671875,1.96858811378479,0.3369682729244232,0.044898562133312225
1659026355122946800,9.16094677734375,1.975612998008728,0.4047742784023285,0.035124726593494415
1659026355132617000,9.170616943359375,1.9884412288665771,0.46433359384536743,0.021380268037319183
1659026355142287400,9.180287353515626,1.997909665107727,0.4906007647514343,0.014660755172371864
1659026355151957800,9.189957763671876,2.007072687149048,0.49273881316185,0.013133592903614044
1659026355161628200,9.199628173828126,2.010737895965576,0.4753291606903076,0.010079269297420979
1659026355171298600,9.209298583984374,2.013792037963867,0.4554760456085205,-0.005192350596189499
1659026355180969000,9.218968994140624,2.0208170413970947,0.4292088747024536,-0.023823726922273636
1659026355190639400,9.228639404296874,2.022038698196411,0.404468834400177,-0.039706211537122726
1659026355200309500,9.2383095703125,2.0195953845977783,0.40782859921455383,-0.04978547990322113
1659026355209980000,9.24797998046875,2.0168464183807373,0.4340957701206207,-0.04673115536570549
1659026355219650300,9.257650390625,2.0095160007476807,0.4563923478126526,-0.034208428114652634
1659026355229320700,9.26732080078125,1.9924118518829346,0.4548651874065399,-0.03023780696094036
1659026355238990800,9.276990966796875,1.9661446809768677,0.43684467673301697,-0.03787361457943916
1659026355248661200,9.2866611328125,1.9301036596298218,0.40660688281059265,-0.051618073135614395
1659026355258331600,9.29633154296875,1.8952842950820923,0.35071274638175964,-0.06444623321294785
1659026355268002000,9.306001953125,1.8754311800003052,0.2700785994529724,-0.06902772188186646
1659026355277672400,9.31567236328125,1.867795467376709,0.19127702713012695,-0.07055488228797913
1659026355287342600,9.325342529296876,1.8604650497436523,0.13843722641468048,-0.0616973415017128
1659026355297013000,9.335012939453126,1.8461097478866577,0.09689842909574509,-0.044898562133312225
1659026355306683400,9.344683349609374,1.8320598602294922,0.04802924394607544,-0.018631376326084137
1659026355316353800,9.354353759765624,1.8283946514129639,0.02390008419752121,0.020158538594841957
1659026355326024200,9.364024169921874,1.8332815170288086,0.03550651669502258,0.06597339361906052
1659026355335694300,9.3736943359375,1.8375576734542847,0.07643445581197739,0.10537417232990265
1659026355345364700,9.38336474609375,1.8412227630615234,0.1378263682126999,0.12705987691879272
1659026355355035100,9.39303515625,1.8503857851028442,0.20349432528018951,0.12522727251052856
1659026355364705500,9.40270556640625,1.868100881576538,0.25327980518341064,0.09804379940032959
1659026355374376000,9.4123759765625,1.8937572240829468,0.2722166180610657,0.05253437161445618
1659026355384046300,9.42204638671875,1.932241678237915,0.26763513684272766,0.016798781231045723
1659026355393716500,9.431716552734375,1.9637012481689453,0.2456440031528473,0.013439024798572063
1659026355403387000,9.441386962890626,1.9969933032989502,0.22090397775173187,0.04153880476951599
1659026355413057300,9.451057373046876,2.032728910446167,0.2135736048221588,0.08643736690282822
1659026355422727700,9.460727783203126,2.0596070289611816,0.2511417865753174,0.1380554437637329
1659026355432398000,9.470398193359374,2.0644938945770264,0.30886849761009216,0.14538581669330597
1659026355442068200,9.480068115234374,2.0507495403289795,0.33574655652046204,0.11239911615848541
1659026355451738600,9.489738525390624,2.1206934452056885,0.4402044415473938,0.13164135813713074
1659026355461409000,9.499408935546874,2.1008403301239014,0.5452731847763062,0.10506874322891235
1659026355471079400,9.509079345703125,2.0846524238586426,0.5553524494171143,0.07391463965177536
1659026355480749600,9.51874951171875,2.088928461074829,0.5807033181190491,0.05100720748305321
1659026355490420000,9.528419921875,2.100229501724243,0.5675697326660156,-0.000610864779446274
1659026355500090400,9.53809033203125,2.110614061355591,0.4869355857372284,-0.048563748598098755
1659026355509760800,9.5477607421875,2.1206934452056885,0.3531562089920044,-0.09162971377372742
1659026355519431200,9.55743115234375,2.1460442543029785,0.2658025324344635,-0.10476330667734146
1659026355529101600,9.5671015625,2.158566951751709,0.2404516488313675,-0.08888082206249237
1659026355538772000,9.57677197265625,2.1512367725372314,0.26916229724884033,-0.06902772188186646
1659026355548442000,9.586442138671876,2.135659694671631,0.3522399067878723,-0.039706211537122726
1659026355558112500,9.596112548828126,2.1151957511901855,0.43867728114128113,-0.015271619893610477
1659026355567783000,9.605782958984374,2.102367401123047,0.4918225109577179,-0.015577051788568497
1659026355577453300,9.615453369140624,2.0932044982910156,0.5132027864456177,-0.02718348242342472
1659026355587123500,9.62512353515625,2.0809872150421143,0.51564621925354,-0.03940077871084213
1659026355596793900,9.6347939453125,2.062966823577881,0.4918225109577179,-0.05803215503692627
1659026355606464300,9.64446435546875,2.0513603687286377,0.4450913369655609,-0.08063415437936783
1659026355616134700,9.654134765625,2.046473264694214,0.4032471179962158,-0.11056652665138245
1659026355625805000,9.66380517578125,2.046473264694214,0.3827831447124481,-0.12431098520755768
1659026355635475200,9.67347509765625,2.043419122695923,0.3879754841327667,-0.1178968995809555
1659026355645145600,9.6831455078125,2.0388376712799072,0.39683303236961365,-0.10751219838857651
1659026355654816000,9.69281591796875,2.030590772628784,0.39194610714912415,-0.09987638890743256
1659026355664486400,9.702486328125,2.0122649669647217,0.3571268320083618,-0.10323614627122879
1659026355674156800,9.71215673828125,1.9976041316986084,0.31009024381637573,-0.10965022444725037
1659026355683827000,9.721826904296876,1.9759185314178467,0.2554178237915039,-0.11545344442129135
1659026355693497300,9.731497314453126,1.9432371854782104,0.18791727721691132,-0.1081230640411377
1659026355703167700,9.741167724609374,1.8998658657073975,0.11919499188661575,-0.0766635313630104
1659026355712838100,9.750838134765624,1.8543564081192017,0.07338013499975204,-0.03695731982588768
1659026355722508500,9.760508544921874,1.8140393495559692,0.07276926934719086,0.005803215317428112
1659026355732179000,9.770178955078125,1.7804417610168457,0.10850485414266586,0.03543015569448471
1659026355741849000,9.77984912109375,1.754785418510437,0.16012293100357056,0.031154103577136993
1659026355751519500,9.78951953125,1.7456225156784058,0.2190713882446289,-0.0054977829568088055
1659026355761190000,9.79918994140625,1.747760534286499,0.30428701639175415,-0.05192350596189499
1659026355770860300,9.8088603515625,1.7492876052856445,0.4243219494819641,-0.09285144507884979
1659026355780530700,9.81853076171875,1.7502039670944214,0.5687914490699768,-0.11606431007385254
1659026355790200800,9.828200927734375,1.754785418510437,0.7083740830421448,-0.11484257876873016
1659026355799871200,9.837871337890626,1.7615050077438354,0.8168025612831116,-0.08582650125026703
1659026355809541600,9.847541748046876,1.7666972875595093,0.8873574733734131,-0.0412333719432354
1659026355819212000,9.8572119140625,1.764253854751587,0.9157626628875732,-0.006719512399286032
1659026355828882200,9.866882080078126,1.754785418510437,0.9062942862510681,-0.008857538923621178
1659026355838552600,9.876552490234374,1.7468441724777222,0.8803325295448303,-0.04276053607463837
1659026355848223000,9.886222900390624,1.7428735494613647,0.8232166767120361,-0.0925460159778595
1659026355857893400,9.895893310546874,1.7401247024536133,0.7248674035072327,-0.13958260416984558
1659026355867563800,9.905563720703125,1.7416518926620483,0.5956695079803467,-0.17348559200763702
1659026355877234200,9.915234130859375,1.7416518926620483,0.45791950821876526,-0.18692462146282196
1659026355886904600,9.924904541015625,1.7272964715957642,0.3287216126918793,-0.17134757339954376
1659026355896574700,9.93457470703125,1.6967532634735107,0.23922991752624512,-0.12950333952903748
1659026355906245000,9.9442451171875,1.6536873579025269,0.17569997906684875,-0.07574722915887833
1659026355915915500,9.95391552734375,1.6118431091308594,0.08437569439411163,-0.032681263983249664
1659026355925586000,9.9635859375,1.5761075019836426,-0.034437503665685654,-0.0054977829568088055
1659026355935256000,9.973256103515626,1.5452587604522705,-0.13675735890865326,0.01649334840476513
1659026355944926500,9.982926513671876,1.506163477897644,-0.20883940160274506,0.03329212963581085
1659026355954596900,9.992596923828126,1.4710386991500854,-0.2525162398815155,0.03237583488225937
1659026355964267300,10.002267333984374,1.4533237218856812,-0.28183773159980774,0.019242240116000175
1659026355973937700,10.011937744140624,1.451491117477417,-0.3004691004753113,0.01893680728971958
1659026355983607800,10.02160791015625,1.4524073600769043,-0.298331081867218,0.031154103577136993
1659026355993278200,10.0312783203125,1.4533237218856812,-0.2928332984447479,0.05253437161445618
1659026356002948600,10.040948486328125,1.4560725688934326,-0.2796997129917145,0.07269290834665298
1659026356012619000,10.050618896484375,1.4579051733016968,-0.2632063627243042,0.09040798991918564
1659026356022289200,10.0602890625,1.4536291360855103,-0.2271653413772583,0.10720676928758621
1659026356031959600,10.06995947265625,1.4349976778030396,-0.1706603467464447,0.12095122784376144
1659026356041630000,10.0796298828125,1.4035382270812988,-0.13370302319526672,0.1233946830034256
1659026356051300400,10.08930029296875,1.358028769493103,-0.13920080661773682,0.10201441496610641
1659026356060970800,10.098970703125,1.3061052560806274,-0.1761581301689148,0.06414080411195755
1659026356070641200,10.10864111328125,1.2480731010437012,-0.24488042294979095,0.017715077847242355
1659026356080311600,10.1183115234375,1.1891247034072876,-0.32154396176338196,-0.03237583488225937
1659026356089981700,10.127981689453126,1.143920660018921,-0.3707185685634613,-0.06536252796649933
1659026356099652000,10.137652099609374,1.1106284856796265,-0.390571653842926,-0.07269290834665298
1659026356109322500,10.147322509765624,1.0874156951904297,-0.35850125551223755,-0.06475166976451874
1659026356118993000,10.156992919921874,1.071227788925171,-0.26473352313041687,-0.04276053607463837
1659026356128663000,10.1666630859375,1.050458312034607,-0.13645191490650177,-0.015577051788568497
1659026356138333400,10.17633349609375,1.0306051969528198,0.014737112447619438,0.00946840364485979
1659026356148003800,10.18600390625,1.0025054216384888,0.15034909546375275,0.008857538923621178
1659026356157674200,10.19567431640625,0.9820414781570435,0.2856556475162506,-0.013439024798572063
1659026356167344600,10.2053447265625,0.9725731015205383,0.39225155115127563,-0.04734202101826668
1659026356177014800,10.215014892578125,0.9527199864387512,0.44295331835746765,-0.07819069176912308
1659026356186685200,10.224685302734375,0.923398494720459,0.44234246015548706,-0.10384701192378998
1659026356196355600,10.23435546875,0.8925498127937317,0.4038579761981964,-0.11392628401517868
1659026356206026000,10.24402587890625,0.849483847618103,0.35132360458374023,-0.09957095980644226
1659026356215696100,10.253696044921876,0.7926734089851379,0.29878923296928406,-0.06200277432799339
1659026356225366500,10.263366455078126,0.7309760451316833,0.2645808160305023,-0.013133592903614044
1659026356235037000,10.273036865234374,0.6717221736907959,0.24411684274673462,0.03909534588456154
1659026356244707300,10.282707275390624,0.61827152967453,0.2144898921251297,0.08093958348035812
1659026356254377700,10.292377685546874,0.5776489973068237,0.18577924370765686,0.10354158282279968
1659026356264048000,10.302048095703125,0.5425242781639099,0.17478369176387787,0.10018182545900345
1659026356273718500,10.311718505859375,0.5095375776290894,0.15554144978523254,0.07116574794054031
1659026356283388700,10.321388671875,0.48968449234962463,0.12377647310495377,0.02932151034474373
1659026356293059000,10.33105908203125,0.4808269441127777,0.09903645515441895,-0.009773836471140385
1659026356302729500,10.3407294921875,0.46799877285957336,0.07215840369462967,-0.03940077871084213
1659026356312400000,10.35039990234375,0.43776097893714905,0.041004300117492676,-0.04153880476951599
1659026356322070000,10.360070068359375,0.39744389057159424,0.016875140368938446,-0.02412915788590908
1659026356331740400,10.369740478515626,0.35651594400405884,0.002825249684974551,0.007330377586185932
1659026356341410800,10.379410888671876,0.31986406445503235,-0.0057268571108579636,0.03909534588456154
1659026356351081200,10.389081298828126,0.2905425727367401,-0.006337722297757864,0.06017018109560013
1659026356360751600,10.398751708984374,0.25816673040390015,0.022678354755043983,0.05711585655808449
1659026356370421800,10.408421875,0.21784965693950653,0.08956804871559143,0.03023780696094036
1659026356380092200,10.418092041015624,0.16714787483215332,0.1476002037525177,-0.0015271619195118546
1659026356389762600,10.427762451171875,0.11980585753917694,0.15493057668209076,-0.02932151034474373
1659026356399433000,10.437432861328125,0.07276926934719086,0.11919499188661575,-0.04520399495959282
1659026356409103000,10.44710302734375,0.023594651371240616,0.07490729540586472,-0.04153880476951599
1659026356418773500,10.4567734375,-0.020082179456949234,0.031230462715029716,-0.027488915249705315
1659026356428444000,10.46644384765625,-0.06375901401042938,0.0034361144062131643,-0.00946840364485979
1659026356438114300,10.4761142578125,-0.10071633011102676,0.007101302966475487,0.006108647678047419
1659026356447784700,10.48578466796875,-0.12240202724933624,0.030314164236187935,0.012217295356094837
1659026356457455000,10.495455078125,-0.1251509189605713,0.05688678100705147,0.024740023538470268
1659026356467125500,10.50512548828125,-0.12209659814834595,0.06207913160324097,0.03817904740571976
1659026356476795600,10.514795654296876,-0.12179116904735565,0.05230529606342316,0.050090912729501724
1659026356486466000,10.524466064453126,-0.12118030339479446,0.05474875494837761,0.05345066636800766
1659026356496136400,10.534136474609374,-0.12209659814834595,0.028176138177514076,0.036651886999607086
1659026356505806800,10.543806884765624,-0.1193477064371109,-0.019471315667033195,0.01588248461484909
1659026356515477000,10.55347705078125,-0.11782054603099823,-0.0683404952287674,0.005803215317428112
1659026356525147400,10.5631474609375,-0.11782054603099823,-0.114460788667202,0.0027488914784044027
1659026356534817800,10.57281787109375,-0.1193477064371109,-0.15691588819026947,0.003359756199643016
1659026356544488200,10.58248828125,-0.11354449391365051,-0.18226677179336548,0.011911863461136818
1659026356554158600,10.59215869140625,-0.10651954263448715,-0.18257221579551697,0.0256563201546669
1659026356563828700,10.601828857421875,-0.10621411353349686,-0.1556941568851471,0.03298669680953026
1659026356573499100,10.6114990234375,-0.10743584483861923,-0.09582941234111786,0.03695731982588768
1659026356583169500,10.62116943359375,-0.10987929999828339,-0.02893971838057041,0.03634645417332649
1659026356592840000,10.63083984375,-0.11598794907331467,0.015347977168858051,0.03176496922969818
1659026356602510000,10.640510009765626,-0.11629338562488556,0.05108356848359108,0.024434590712189674
1659026356612180700,10.6501806640625,-0.10987929999828339,0.08009964227676392,0.007635809946805239
1659026356621851000,10.659850830078126,-0.104076087474823,0.09506583213806152,-0.00946840364485979
1659026356631521300,10.669521240234374,-0.09613484144210815,0.10911571979522705,-0.024740023538470268
1659026356641191700,10.679191650390624,-0.08544471114873886,0.11217004805803299,-0.03481929376721382
1659026356650862000,10.688862060546874,-0.07903063297271729,0.09720385819673538,-0.020769402384757996
1659026356660532200,10.6985322265625,-0.08666644245386124,0.07276926934719086,0.00946840364485979
1659026356670202600,10.70820263671875,-0.09582941234111786,0.05688678100705147,0.039706211537122726
1659026356679873000,10.717873046875,-0.0988837331533432,0.0449749194085598,0.05955931544303894
1659026356689543400,10.72754345703125,-0.09918916970491409,0.02542724646627903,0.057726722210645676
1659026356699213800,10.7372138671875,-0.0988837331533432,0.003741546766832471,0.054672397673130035
1659026356708884000,10.746884033203125,-0.10041090101003647,-0.011530072428286076,0.04153880476951599
1659026356718554400,10.756554443359375,-0.09766200929880142,-0.01611155830323696,0.013439024798572063
1659026356728224800,10.766224853515626,-0.09002619981765747,-0.004810560029000044,-0.0204639695584774
1659026356737895200,10.775895263671876,-0.0836121141910553,0.012904518283903599,-0.03390299528837204
1659026356747565300,10.7855654296875,-0.08300124853849411,0.0193185992538929,-0.022907428443431854
1659026356757235700,10.795235595703126,-0.08819360285997391,0.014126247726380825,0.0009162971982732415
1659026356766906000,10.804906005859374,-0.09308052062988281,0.00679587060585618,0.02107483521103859
1659026356776576500,10.814576416015624,-0.09521854668855667,0.0022143847309052944,0.025961752980947495
1659026356786247000,10.824246826171875,-0.09521854668855667,-0.0029779658652842045,0.019242240116000175
1659026356795917000,10.8339169921875,-0.09674570709466934,-0.010919207707047462,0.013744457624852657
1659026356805587700,10.843587646484375,-0.09124792367219925,-0.02802342176437378,0.021991131827235222
1659026356815257900,10.8532578125,-0.07536543905735016,-0.06528617441654205,0.05039634555578232
1659026356824928300,10.86292822265625,-0.05826122686266899,-0.1141553521156311,0.08032871782779694
1659026356834598700,10.8725986328125,-0.03932442143559456,-0.14714205265045166,0.09560033679008484
1659026356844269000,10.88226904296875,-0.019471315667033195,-0.16271910071372986,0.0977383628487587
1659026356853939200,10.891939208984375,-0.00511599238961935,-0.1556941568851471,0.09560033679008484
1659026356863609600,10.901609619140626,0.0031306820455938578,-0.12026400119066238,0.09162971377372742
1659026356873280000,10.911280029296876,0.007101302966475487,-0.06528617441654205,0.08613193035125732
1659026356882950400,10.920950439453126,0.013820815831422806,0.002825249684974551,0.08429934084415436
1659026356892620800,10.930620849609374,0.01870773360133171,0.04589121788740158,0.07971785217523575
1659026356902291000,10.940291015625,0.024816380813717842,0.06666062027215958,0.0818558782339096
1659026356911961300,10.94996142578125,0.029703300446271896,0.10178534686565399,0.09804379940032959
1659026356921631700,10.9596318359375,0.033368486911058426,0.1634826809167862,0.12431098520755768
1659026356931302100,10.96930224609375,0.04955640435218811,0.23220497369766235,0.15179990231990814
1659026356940972300,10.97897216796875,0.08956804871559143,0.34002259373664856,0.1899789422750473
1659026356950642700,10.988642578125,0.1265253722667694,0.5642099976539612,0.24709481000900269
1659026356960313000,10.99831298828125,0.20349432528018951,0.8534544706344604,0.25534147024154663
1659026356969983500,11.0079833984375,0.4246273934841156,0.9872338175773621,0.0015271619195118546
1659026356979654000,11.01765380859375,0.33085963129997253,1.5874085426330566,0.16646064817905426
1659026356989324000,11.027323974609375,-0.3001636862754822,2.09167742729187,0.833219587802887
1659026356998994400,11.036994384765626,-0.5371792316436768,1.3329832553863525,0.7886264324188232
1659026357008664800,11.046664794921876,-0.16852232813835144,0.7349466681480408,0.21899501979351044
1659026357018335200,11.056335205078126,0.22243113815784454,0.5012909173965454,-0.3640754222869873
1659026357028005600,11.066005615234374,0.30398157238960266,0.24350596964359283,-0.6957749724388123
1659026357037676000,11.075676025390624,0.24686573445796967,0.0025198173243552446,-0.7935133576393127
1659026357047346200,11.08534619140625,0.17142392694950104,-0.14286600053310394,-0.842382550239563
1659026357057016600,11.0950166015625,0.06604975461959839,-0.19204062223434448,-0.7696896195411682
1659026357066687000,11.10468701171875,-0.06895136088132858,-0.17463096976280212,-0.5189296007156372
1659026357076357400,11.114357421875,-0.2638172209262848,-0.1505018174648285,-0.22999058663845062
