time,seconds_elapsed,z,y,x
1659026346029032400,0.067032470703125,-69.26250457763672,-34.40625,-28.61250114440918
1659026346039032600,0.077032470703125,-69.54375457763672,-33.26250076293945,-29.156251907348633
1659026346049032400,0.087032470703125,-69.60000610351562,-32.98125076293945,-28.218751907348633
1659026346059032600,0.097032470703125,-68.8125,-33.39375305175781,-28.33125114440918
1659026346069032400,0.107032470703125,-68.88750457763672,-33.45000076293945,-28.23750114440918
1659026346079032600,0.117032470703125,-69.11250305175781,-33.50625228881836,-28.368751525878906
1659026346089032400,0.127032470703125,-69.26250457763672,-33.60000228881836,-28.368751525878906
1659026346099032600,0.137032470703125,-69.13125610351562,-33.525001525878906,-28.33125114440918
1659026346109032400,0.147032470703125,-69.0562515258789,-33.22500228881836,-28.275001525878906
1659026346119032600,0.157032470703125,-68.92500305175781,-33.54375076293945,-28.162500381469727
1659026346129032400,0.167032470703125,-68.71875,-33.618751525878906,-28.350000381469727
1659026346139032600,0.177032470703125,-68.9625015258789,-33.50625228881836,-28.368751525878906
1659026346149032400,0.187032470703125,-68.9625015258789,-33.31875228881836,-28.406251907348633
1659026346159032600,0.197032470703125,-68.71875,-33.243751525878906,-28.275001525878906
1659026346169032400,0.207032470703125,-68.55000305175781,-33.01875305175781,-28.218751907348633
1659026346179032600,0.217032470703125,-68.55000305175781,-32.962501525878906,-28.181251525878906
1659026346189032400,0.227032470703125,-68.55000305175781,-33,-28.23750114440918
1659026346199032600,0.237032470703125,-68.56875610351562,-32.92500305175781,-28.218751907348633
1659026346209032400,0.247032470703125,-68.34375,-32.868751525878906,-28.087501525878906
1659026346219032600,0.257032470703125,-68.4937515258789,-32.85000228881836,-28.087501525878906
1659026346229032400,0.267032470703125,-68.45625305175781,-32.98125076293945,-28.068750381469727
1659026346239032600,0.277032470703125,-68.60625457763672,-33.01875305175781,-28.106250762939453
1659026346249032400,0.287032470703125,-68.75625610351562,-33.22500228881836,-28.293750762939453
1659026346259032600,0.297032470703125,-68.92500305175781,-33.375,-28.181251525878906
1659026346269032400,0.307032470703125,-68.8687515258789,-33.63750076293945,-28.068750381469727
1659026346279032600,0.317032470703125,-68.85000610351562,-33.54375076293945,-28.218751907348633
1659026346289032400,0.327032470703125,-69,-33.65625,-28.368751525878906
1659026346299032600,0.337032470703125,-68.92500305175781,-33.618751525878906,-28.387500762939453
1659026346309032400,0.347032470703125,-68.90625,-33.46875,-28.42500114440918
1659026346319032600,0.357032470703125,-68.6812515258789,-33.375,-28.443750381469727
1659026346329032400,0.367032470703125,-68.53125,-33.35625076293945,-28.200000762939453
1659026346339032600,0.377032470703125,-68.45625305175781,-33.35625076293945,-28.218751907348633
1659026346349032400,0.387032470703125,-68.8687515258789,-33.1875,-28.293750762939453
1659026346359032600,0.397032470703125,-68.90625,-33.16875076293945,-28.068750381469727
1659026346369032400,0.407032470703125,-69.09375,-33.243751525878906,-27.918750762939453
1659026346379032600,0.417032470703125,-69.1875,-33.28125,-27.76875114440918
1659026346389032400,0.427032470703125,-69.3375015258789,-33.375,-27.76875114440918
1659026346399032600,0.437032470703125,-69.39375305175781,-33.337501525878906,-27.76875114440918
1659026346409032400,0.447032470703125,-69.3375015258789,-33.35625076293945,-28.031251907348633
1659026346419032600,0.457032470703125,-69.30000305175781,-33.056251525878906,-28.012500762939453
1659026346429032400,0.467032470703125,-68.94375610351562,-33.1875,-28.012500762939453
1659026346439032600,0.477032470703125,-68.9625015258789,-33.16875076293945,-28.031251907348633
1659026346449032400,0.487032470703125,-68.94375610351562,-33.01875305175781,-28.33125114440918
1659026346459032600,0.497032470703125,-68.79375457763672,-33.01875305175781,-28.275001525878906
1659026346469032400,0.507032470703125,-68.71875,-33.16875076293945,-28.218751907348633
1659026346479032600,0.517032470703125,-68.79375457763672,-33.16875076293945,-28.068750381469727
1659026346489032400,0.527032470703125,-68.90625,-33.16875076293945,-27.975000381469727
1659026346499032600,0.537032470703125,-68.90625,-33.35625076293945,-28.200000762939453
1659026346509032400,0.547032470703125,-68.83125305175781,-33.243751525878906,-28.087501525878906
1659026346519032600,0.557032470703125,-68.83125305175781,-33.337501525878906,-28.14375114440918
1659026346529032400,0.567032470703125,-68.53125,-33.41250228881836,-27.993751525878906
1659026346539032600,0.577032470703125,-68.4375,-33.46875,-28.087501525878906
1659026346549032400,0.587032470703125,-68.4000015258789,-33.337501525878906,-28.14375114440918
1659026346559032600,0.597032470703125,-68.23125457763672,-33.41250228881836,-28.368751525878906
1659026346569032400,0.607032470703125,-68.10000610351562,-33.41250228881836,-28.462501525878906
1659026346579032600,0.617032470703125,-68.13750457763672,-33.337501525878906,-28.350000381469727
1659026346589032400,0.627032470703125,-68.0625,-33.16875076293945,-28.481250762939453
1659026346599032600,0.637032470703125,-67.81875610351562,-33.13125228881836,-28.481250762939453
1659026346609032400,0.647032470703125,-68.00625610351562,-33.22500228881836,-28.556251525878906
1659026346619032600,0.657032470703125,-68.19375610351562,-33.07500076293945,-28.70625114440918
1659026346629032400,0.667032470703125,-68.19375610351562,-33.11250305175781,-28.687501907348633
1659026346639032600,0.677032470703125,-68.38125610351562,-33.22500228881836,-28.687501907348633
1659026346649032400,0.687032470703125,-68.23125457763672,-33.16875076293945,-28.500001907348633
1659026346659032600,0.697032470703125,-68.08125305175781,-33.39375305175781,-28.537500381469727
1659026346669032400,0.707032470703125,-68.25,-33.73125076293945,-28.593751907348633
1659026346679032600,0.717032470703125,-68.25,-33.76875305175781,-28.51875114440918
1659026346689032400,0.727032470703125,-68.13750457763672,-33.69375228881836,-28.500001907348633
1659026346699032600,0.737032470703125,-67.96875,-33.84375,-28.42500114440918
1659026346709032400,0.747032470703125,-67.78125,-33.84375,-28.387500762939453
1659026346719032600,0.757032470703125,-67.81875610351562,-33.97500228881836,-28.312501907348633
1659026346729032400,0.767032470703125,-68.00625610351562,-34.16250228881836,-28.387500762939453
1659026346739032600,0.777032470703125,-68.23125457763672,-33.900001525878906,-28.350000381469727
1659026346749032400,0.787032470703125,-68.0250015258789,-33.712501525878906,-28.218751907348633
1659026346759032600,0.797032470703125,-68.25,-33.78750228881836,-28.23750114440918
1659026346769032400,0.807032470703125,-68.47500610351562,-33.82500076293945,-28.293750762939453
1659026346779032600,0.817032470703125,-68.5875015258789,-33.73125076293945,-28.293750762939453
1659026346789032400,0.827032470703125,-68.51250457763672,-33.73125076293945,-28.387500762939453
1659026346799032600,0.837032470703125,-68.3062515258789,-33.60000228881836,-28.537500381469727
1659026346809032400,0.847032470703125,-68.2125015258789,-33.45000076293945,-28.556251525878906
1659026346819032600,0.857032470703125,-68.08125305175781,-33.806251525878906,-28.743751525878906
1659026346829032400,0.867032470703125,-68.32500457763672,-33.900001525878906,-28.931251525878906
1659026346839032600,0.877032470703125,-68.25,-33.75,-28.89375114440918
1659026346849032400,0.887032470703125,-68.1187515258789,-33.78750228881836,-28.725000381469727
1659026346859032600,0.897032470703125,-67.95000457763672,-34.01250076293945,-28.61250114440918
1659026346869032400,0.907032470703125,-68.23125457763672,-34.05000305175781,-28.61250114440918
1659026346879032600,0.917032470703125,-68.32500457763672,-34.14375305175781,-28.443750381469727
1659026346889032400,0.927032470703125,-68.38125610351562,-34.05000305175781,-28.443750381469727
1659026346899032600,0.937032470703125,-68.28750610351562,-33.95625305175781,-28.462501525878906
1659026346909032400,0.947032470703125,-68.08125305175781,-33.88125228881836,-28.387500762939453
1659026346919032600,0.957032470703125,-68.0625,-34.05000305175781,-28.537500381469727
1659026346929032400,0.967032470703125,-68.0250015258789,-34.10625076293945,-28.818750381469727
1659026346939032600,0.977032470703125,-68.19375610351562,-33.78750228881836,-28.80000114440918
1659026346949032400,0.987032470703125,-68.00625610351562,-33.84375,-29.006250381469727
1659026346959032600,0.997032470703125,-67.98750305175781,-33.712501525878906,-29.025001525878906
1659026346969032400,1.007032470703125,-67.98750305175781,-33.75,-29.025001525878906
1659026346979032600,1.017032470703125,-67.95000457763672,-33.618751525878906,-28.80000114440918
1659026346989032400,1.027032470703125,-67.95000457763672,-33.50625228881836,-28.912500381469727
1659026346999032600,1.037032470703125,-68.17500305175781,-33.337501525878906,-28.89375114440918
1659026347009032400,1.047032470703125,-68.04375457763672,-33.13125228881836,-28.725000381469727
1659026347019032600,1.057032470703125,-67.76250457763672,-33.26250076293945,-28.968751907348633
1659026347029032400,1.067032470703125,-67.7437515258789,-33.46875,-28.856250762939453
1659026347039032600,1.077032470703125,-67.53750610351562,-33.39375305175781,-28.781251907348633
1659026347049032400,1.087032470703125,-67.59375,-33.375,-28.89375114440918
1659026347059032600,1.097032470703125,-67.5,-33.35625076293945,-28.968751907348633
1659026347069032400,1.107032470703125,-67.33125305175781,-33.525001525878906,-28.762500762939453
1659026347079032600,1.117032470703125,-67.16250610351562,-33.431251525878906,-28.856250762939453
1659026347089032400,1.127032470703125,-67.33125305175781,-33.45000076293945,-28.968751907348633
1659026347099032600,1.137032470703125,-67.48125457763672,-33.5625,-28.875001907348633
1659026347109032400,1.147032470703125,-67.53750610351562,-33.337501525878906,-28.725000381469727
1659026347119032600,1.157032470703125,-67.61250305175781,-33.46875,-28.89375114440918
1659026347129032400,1.167032470703125,-67.48125457763672,-33.48750305175781,-28.781251907348633
1659026347139032600,1.177032470703125,-67.70625305175781,-33.54375076293945,-28.856250762939453
1659026347149032400,1.187032470703125,-67.95000457763672,-33.50625228881836,-28.98750114440918
1659026347159032600,1.197032470703125,-67.98750305175781,-33.65625,-28.875001907348633
1659026347169032400,1.207032470703125,-67.89375305175781,-33.69375228881836,-28.743751525878906
1659026347179032600,1.217032470703125,-67.85625457763672,-33.39375305175781,-28.725000381469727
1659026347189032400,1.227032470703125,-67.91250610351562,-33.337501525878906,-28.781251907348633
1659026347199032600,1.237032470703125,-68.00625610351562,-33.31875228881836,-28.837501525878906
1659026347209032400,1.247032470703125,-67.91250610351562,-33.375,-28.762500762939453
1659026347219032600,1.257032470703125,-67.81875610351562,-33.243751525878906,-28.593751907348633
1659026347229032400,1.267032470703125,-67.9312515258789,-33.31875228881836,-28.443750381469727
1659026347239032600,1.277032470703125,-67.85625457763672,-33.45000076293945,-28.33125114440918
1659026347249032400,1.287032470703125,-67.80000305175781,-33.58125305175781,-28.575000762939453
1659026347259032600,1.297032470703125,-67.72500610351562,-33.73125076293945,-28.593751907348633
1659026347269032400,1.307032470703125,-67.61250305175781,-33.84375,-28.668750762939453
1659026347279032600,1.317032470703125,-67.80000305175781,-33.86250305175781,-28.631250381469727
1659026347289032400,1.327032470703125,-67.76250457763672,-33.67500305175781,-28.687501907348633
1659026347299032600,1.337032470703125,-67.66875457763672,-33.993751525878906,-28.856250762939453
1659026347309032400,1.347032470703125,-67.48125457763672,-33.97500228881836,-28.98750114440918
1659026347319032600,1.357032470703125,-67.61250305175781,-33.75,-29.100000381469727
1659026347329032400,1.367032470703125,-67.7437515258789,-33.73125076293945,-28.89375114440918
1659026347339032600,1.377032470703125,-67.96875,-33.84375,-28.89375114440918
1659026347349032400,1.387032470703125,-68.0250015258789,-33.900001525878906,-28.89375114440918
1659026347359032600,1.397032470703125,-67.95000457763672,-33.58125305175781,-28.781251907348633
1659026347369032400,1.407032470703125,-68.19375610351562,-33.91875076293945,-28.80000114440918
1659026347379032600,1.417032470703125,-68.4000015258789,-33.91875076293945,-28.781251907348633
1659026347389032400,1.427032470703125,-68.47500610351562,-34.03125,-28.743751525878906
1659026347399032600,1.437032470703125,-68.23125457763672,-34.01250076293945,-28.593751907348633
1659026347409032400,1.447032470703125,-68.1187515258789,-34.05000305175781,-28.33125114440918
1659026347419032600,1.457032470703125,-68.10000610351562,-34.03125,-28.406251907348633
1659026347429032400,1.467032470703125,-68.34375,-33.82500076293945,-28.33125114440918
1659026347439032600,1.477032470703125,-68.34375,-34.05000305175781,-28.500001907348633
1659026347449032400,1.487032470703125,-68.4375,-33.65625,-28.725000381469727
1659026347459032600,1.497032470703125,-68.53125,-33.431251525878906,-28.781251907348633
1659026347469032400,1.507032470703125,-68.55000305175781,-33.337501525878906,-28.931251525878906
1659026347479032600,1.517032470703125,-68.45625305175781,-33.39375305175781,-28.98750114440918
1659026347489032400,1.527032470703125,-68.55000305175781,-33.41250228881836,-29.193750381469727
1659026347499032600,1.537032470703125,-68.45625305175781,-33.20625305175781,-29.137500762939453
1659026347509032400,1.547032470703125,-68.10000610351562,-33.28125,-28.931251525878906
1659026347519032600,1.557032470703125,-67.89375305175781,-33.337501525878906,-28.762500762939453
1659026347529032400,1.567032470703125,-67.875,-33.50625228881836,-28.668750762939453
1659026347539032600,1.577032470703125,-67.80000305175781,-33.525001525878906,-28.687501907348633
1659026347549032400,1.587032470703125,-67.7437515258789,-33.41250228881836,-28.575000762939453
1659026347559032600,1.597032470703125,-67.8375015258789,-33.41250228881836,-28.631250381469727
1659026347569032400,1.607032470703125,-67.63125610351562,-33.41250228881836,-28.650001525878906
1659026347579032600,1.617032470703125,-67.91250610351562,-33.50625228881836,-28.51875114440918
1659026347589032400,1.627032470703125,-68.13750457763672,-33.50625228881836,-28.931251525878906
1659026347599032600,1.637032470703125,-68.3062515258789,-33.46875,-29.156251907348633
1659026347609032400,1.647032470703125,-68.26875305175781,-33.5625,-29.118751525878906
1659026347619032600,1.657032470703125,-68.38125610351562,-33.58125305175781,-29.137500762939453
1659026347629032400,1.667032470703125,-68.3062515258789,-33.525001525878906,-29.287500381469727
1659026347639032600,1.677032470703125,-68.53125,-33.76875305175781,-29.418750762939453
1659026347649032400,1.687032470703125,-68.73750305175781,-33.50625228881836,-29.418750762939453
1659026347659032600,1.697032470703125,-68.51250457763672,-33.54375076293945,-29.568750381469727
1659026347669032400,1.707032470703125,-68.47500610351562,-33.54375076293945,-29.475000381469727
1659026347679032600,1.717032470703125,-68.36250305175781,-33.48750305175781,-29.26875114440918
1659026347689032400,1.727032470703125,-68.28750610351562,-33.46875,-29.006250381469727
1659026347699032600,1.737032470703125,-68.00625610351562,-33.243751525878906,-28.725000381469727
1659026347709032400,1.747032470703125,-68.1187515258789,-33.54375076293945,-28.443750381469727
1659026347719032600,1.757032470703125,-67.66875457763672,-33.22500228881836,-28.387500762939453
1659026347729032400,1.767032470703125,-67.57500457763672,-33.50625228881836,-28.443750381469727
1659026347739032600,1.777032470703125,-67.61250305175781,-33.60000228881836,-28.406251907348633
1659026347749032400,1.787032470703125,-67.29375457763672,-33.5625,-28.42500114440918
1659026347759032600,1.797032470703125,-67.29375457763672,-33.525001525878906,-28.500001907348633
1659026347769032400,1.807032470703125,-67.125,-33.50625228881836,-28.70625114440918
1659026347779032600,1.817032470703125,-67.3125,-33.58125305175781,-28.650001525878906
1659026347789032400,1.827032470703125,-67.25625610351562,-33.375,-28.781251907348633
1659026347799032600,1.837032470703125,-67.4625015258789,-33.5625,-28.818750381469727
1659026347809032400,1.847032470703125,-67.61250305175781,-33.28125,-28.912500381469727
1659026347819032600,1.857032470703125,-67.66875457763672,-33.28125,-29.043750762939453
1659026347829032400,1.867032470703125,-68.00625610351562,-33.35625076293945,-28.931251525878906
1659026347839032600,1.877032470703125,-68.08125305175781,-33.28125,-29.043750762939453
1659026347849032400,1.887032470703125,-68.5875015258789,-33.150001525878906,-29.212501525878906
1659026347859032600,1.897032470703125,-68.60625457763672,-32.92500305175781,-29.325000762939453
1659026347869032400,1.907032470703125,-68.8687515258789,-33.03750228881836,-29.418750762939453
1659026347879032600,1.917032470703125,-69.16875457763672,-32.775001525878906,-29.400001525878906
1659026347889032400,1.927032470703125,-69.13125610351562,-32.775001525878906,-29.231250762939453
1659026347899032600,1.937032470703125,-69.20625305175781,-32.51250076293945,-29.137500762939453
1659026347909032400,1.947032470703125,-69.31875610351562,-32.25,-29.231250762939453
1659026347919032600,1.957032470703125,-69.31875610351562,-32.08125305175781,-29.156251907348633
1659026347929032400,1.967032470703125,-69.11250305175781,-31.931251525878906,-29.17500114440918
1659026347939032600,1.977032470703125,-69,-32.10000228881836,-29.512500762939453
1659026347949032400,1.987032470703125,-68.8125,-31.912500381469727,-29.681251525878906
1659026347959032600,1.997032470703125,-68.56875610351562,-32.00625228881836,-29.681251525878906
1659026347969032400,2.007032470703125,-68.56875610351562,-32.0625,-29.981250762939453
1659026347979032600,2.017032470703125,-68.51250457763672,-31.950000762939453,-29.962501525878906
1659026347989032400,2.027032470703125,-68.4375,-32.17500305175781,-30.225000381469727
1659026347999032600,2.037032470703125,-68.4375,-32.306251525878906,-30.356250762939453
1659026348009032400,2.047032470703125,-68.41875457763672,-32.36250305175781,-30.525001525878906
1659026348019032600,2.057032470703125,-68.55000305175781,-32.53125,-30.525001525878906
1659026348029032400,2.067032470703125,-68.55000305175781,-32.38125228881836,-30.48750114440918
1659026348039032600,2.077032470703125,-68.5875015258789,-32.41875076293945,-30.58125114440918
1659026348049032400,2.087032470703125,-68.51250457763672,-32.26875305175781,-30.600000381469727
1659026348059032600,2.097032470703125,-68.4000015258789,-32.493751525878906,-30.918750762939453
1659026348069032400,2.107032470703125,-68.13750457763672,-32.400001525878906,-30.975000381469727
1659026348079032600,2.117032470703125,-68.08125305175781,-32.36250305175781,-31.312501907348633
1659026348089032400,2.127032470703125,-67.85625457763672,-32.45625305175781,-31.593751907348633
1659026348099032600,2.137032470703125,-67.42500305175781,-32.681251525878906,-32.17500305175781
1659026348109032400,2.147032470703125,-67.20000457763672,-32.962501525878906,-32.71875
1659026348119032600,2.157032470703125,-66.86250305175781,-32.868751525878906,-33.431251525878906
1659026348129032400,2.167032470703125,-66.69375610351562,-33.150001525878906,-34.14375305175781
1659026348139032600,2.177032470703125,-66.28125,-33.30000305175781,-34.89375305175781
1659026348149032400,2.187032470703125,-65.8687515258789,-33.39375305175781,-35.38125228881836
1659026348159032600,2.197032470703125,-65.47500610351562,-33.5625,-35.962501525878906
1659026348169032400,2.207032470703125,-65.13750457763672,-33.806251525878906,-36.375
1659026348179032600,2.217032470703125,-65.08125305175781,-33.63750076293945,-36.712501525878906
1659026348189032400,2.227032470703125,-64.76250457763672,-33.67500305175781,-37.16250228881836
1659026348199032600,2.237032470703125,-64.6875,-33.91875076293945,-37.29375076293945
1659026348209032400,2.247032470703125,-64.42500305175781,-33.91875076293945,-37.38750076293945
1659026348219032600,2.257032470703125,-64.35000610351562,-33.86250305175781,-37.57500076293945
1659026348229032400,2.267032470703125,-64.21875,-33.95625305175781,-37.96875
1659026348239032600,2.277032470703125,-63.993751525878906,-33.73125076293945,-38.212501525878906
1659026348249032400,2.287032470703125,-63.73125076293945,-33.63750076293945,-38.493751525878906
1659026348259032600,2.297032470703125,-63.31875228881836,-33.712501525878906,-38.64375305175781
1659026348269032400,2.307032470703125,-63.13125228881836,-33.67500305175781,-38.64375305175781
1659026348279032600,2.317032470703125,-62.681251525878906,-33.73125076293945,-38.94375228881836
1659026348289032400,2.327032470703125,-62.531253814697266,-33.9375,-39.056251525878906
1659026348299032600,2.337032470703125,-62.400001525878906,-34.16250228881836,-38.92500305175781
1659026348309032400,2.347032470703125,-62.36250305175781,-34.51875305175781,-38.75625228881836
1659026348319032600,2.357032470703125,-62.531253814697266,-35.28750228881836,-38.212501525878906
1659026348329032400,2.367032470703125,-62.85000228881836,-35.75625228881836,-37.556251525878906
1659026348339032600,2.377032470703125,-63.243751525878906,-36.16875076293945,-36.97500228881836
1659026348349032400,2.387032470703125,-63.468753814697266,-36.63750076293945,-36.31875228881836
1659026348359032600,2.397032470703125,-63.806251525878906,-36.91875076293945,-35.47500228881836
1659026348369032400,2.407032470703125,-64.14375305175781,-37.125,-34.70625305175781
1659026348379032600,2.417032470703125,-64.23750305175781,-37.6875,-33.88125228881836
1659026348389032400,2.427032470703125,-64.63125610351562,-38.025001525878906,-32.79375076293945
1659026348399032600,2.437032470703125,-64.9312515258789,-38.493751525878906,-31.931251525878906
1659026348409032400,2.447032470703125,-65.10000610351562,-38.94375228881836,-31.106250762939453
1659026348419032600,2.457032470703125,-65.32500457763672,-39.41250228881836,-30.225000381469727
1659026348429032400,2.467032470703125,-65.4000015258789,-39.95625305175781,-29.381250381469727
1659026348439032600,2.477032470703125,-65.45625305175781,-40.63125228881836,-28.218751907348633
1659026348449032400,2.487032470703125,-65.41875457763672,-41.306251525878906,-27.037500381469727
1659026348459032600,2.497032470703125,-65.56875610351562,-41.92500305175781,-26.025001525878906
1659026348469032400,2.507032470703125,-65.45625305175781,-42.65625,-25.125001907348633
1659026348479032600,2.517032470703125,-65.13750457763672,-42.97500228881836,-24.150001525878906
1659026348489032400,2.527032470703125,-64.95000457763672,-43.76250076293945,-23.08125114440918
1659026348499032600,2.537032470703125,-64.63125610351562,-44.28750228881836,-22.012500762939453
1659026348509032400,2.547032470703125,-64.38750457763672,-44.962501525878906,-20.92500114440918
1659026348519032600,2.557032470703125,-64.21875,-45.63750076293945,-19.96875
1659026348529032400,2.567032470703125,-64.16250610351562,-46.368751525878906,-19.368751525878906
1659026348539032600,2.577032470703125,-64.05000305175781,-46.51875305175781,-18.506250381469727
1659026348549032400,2.587032470703125,-64.05000305175781,-46.76250076293945,-17.887500762939453
1659026348559032600,2.597032470703125,-64.01250457763672,-46.95000076293945,-17.34375
1659026348569032400,2.607032470703125,-63.88125228881836,-46.70625305175781,-16.931251525878906
1659026348579032600,2.617032470703125,-64.125,-46.743751525878906,-16.725000381469727
1659026348589032400,2.627032470703125,-64.4625015258789,-46.40625,-16.462501525878906
1659026348599032600,2.637032470703125,-64.91250610351562,-45.86250305175781,-16.59375
1659026348609032400,2.647032470703125,-65.08125305175781,-45.39375305175781,-16.650001525878906
1659026348619032600,2.657032470703125,-65.51250457763672,-45.13125228881836,-16.931251525878906
1659026348629032400,2.667032470703125,-65.85000610351562,-44.4375,-17.118751525878906
1659026348639032600,2.677032470703125,-66.22500610351562,-44.118751525878906,-17.325000762939453
1659026348649031000,2.687031005859375,-66.54375457763672,-43.76250076293945,-17.681251525878906
1659026348659031000,2.697031005859375,-66.76875305175781,-43.5,-18.09375
1659026348669031000,2.707031005859375,-66.9375,-43.20000076293945,-18.75
1659026348679031000,2.717031005859375,-67.06875610351562,-43.087501525878906,-19.3125
1659026348689031000,2.727031005859375,-67.2750015258789,-42.69375228881836,-19.537500381469727
1659026348699031000,2.737031005859375,-67.20000457763672,-42.60000228881836,-19.96875
1659026348709031000,2.747031005859375,-67.16250610351562,-42.73125076293945,-20.193750381469727
1659026348719031000,2.757031005859375,-67.20000457763672,-42.5625,-20.493751525878906
1659026348729031000,2.767031005859375,-67.2750015258789,-42.75,-20.756250381469727
1659026348739031000,2.777031005859375,-67.14375305175781,-42.618751525878906,-20.662500381469727
1659026348749031000,2.787031005859375,-67.3125,-42.712501525878906,-20.493751525878906
1659026348759031000,2.797031005859375,-67.125,-42.75,-20.34375
1659026348769031000,2.807031005859375,-67.14375305175781,-42.86250305175781,-20.55000114440918
1659026348779031000,2.817031005859375,-67.23750305175781,-42.75,-20.381250381469727
1659026348789031000,2.827031005859375,-67.44375610351562,-42.65625,-20.662500381469727
1659026348799031000,2.837031005859375,-67.51875305175781,-42.63750076293945,-20.868751525878906
1659026348809031000,2.847031005859375,-67.48125457763672,-42.150001525878906,-21.09375
1659026348819031000,2.857031005859375,-67.91250610351562,-41.90625,-21.712501525878906
1659026348829031000,2.867031005859375,-67.70625305175781,-41.55000305175781,-22.33125114440918
1659026348839031000,2.877031005859375,-67.6500015258789,-41.212501525878906,-23.100000381469727
1659026348849031000,2.887031005859375,-67.89375305175781,-40.80000305175781,-23.681251525878906
1659026348859031000,2.897031005859375,-68.08125305175781,-40.42500305175781,-24.67500114440918
1659026348869031000,2.907031005859375,-67.9312515258789,-39.86250305175781,-25.631250381469727
1659026348879031000,2.917031005859375,-67.78125,-39.243751525878906,-26.906251907348633
1659026348889031000,2.927031005859375,-67.80000305175781,-38.66250228881836,-28.312501907348633
1659026348899031000,2.937031005859375,-67.51875305175781,-38.10000228881836,-29.681251525878906
1659026348909031000,2.947031005859375,-67.35000610351562,-37.462501525878906,-31.293750762939453
1659026348919031000,2.957031005859375,-67.29375457763672,-36.82500076293945,-32.73750305175781
1659026348929031000,2.967031005859375,-66.9000015258789,-36.16875076293945,-34.05000305175781
1659026348939031000,2.977031005859375,-66.45000457763672,-35.71875,-35.51250076293945
1659026348949031000,2.987031005859375,-66.3375015258789,-35.19375228881836,-36.806251525878906
1659026348959031000,2.997031005859375,-66.26250457763672,-34.78125,-38.13750076293945
1659026348969031000,3.007031005859375,-66.16875457763672,-34.462501525878906,-39.28125
1659026348979031000,3.017031005859375,-66.09375,-34.21875,-40.21875
1659026348989031000,3.027031005859375,-66.31875610351562,-34.01250076293945,-40.85625076293945
1659026348999031000,3.037031005859375,-66.39375305175781,-33.91875076293945,-41.25
1659026349009031000,3.047031005859375,-66.60000610351562,-34.181251525878906,-41.681251525878906
1659026349019031000,3.057031005859375,-67.03125,-34.125,-41.70000076293945
1659026349029031000,3.067031005859375,-67.21875,-34.35000228881836,-41.4375
1659026349039031000,3.077031005859375,-67.875,-34.931251525878906,-40.6875
1659026349049031000,3.087031005859375,-68.4375,-35.56875228881836,-39.58125305175781
1659026349059031000,3.097031005859375,-69.16875457763672,-36.48750305175781,-38.51250076293945
1659026349069031000,3.107031005859375,-69.67500305175781,-37.70625305175781,-37.05000305175781
1659026349079031000,3.117031005859375,-70.05000305175781,-38.92500305175781,-35.19375228881836
1659026349089031000,3.127031005859375,-70.06875610351562,-40.125,-33.13125228881836
1659026349099031000,3.137031005859375,-69.76875305175781,-41.56875228881836,-30.806251525878906
1659026349109031000,3.147031005859375,-69.0562515258789,-43.20000076293945,-28.181251525878906
1659026349119031000,3.157031005859375,-67.81875610351562,-44.85000228881836,-25.556251525878906
1659026349129031000,3.167031005859375,-66.20625305175781,-46.368751525878906,-22.725000381469727
1659026349139031000,3.177031005859375,-63.82500076293945,-47.45625305175781,-19.837501525878906
1659026349149031000,3.187031005859375,-61.087501525878906,-48.22500228881836,-17.25
1659026349159031000,3.197031005859375,-58.23750305175781,-48.843753814697266,-15.206250190734863
1659026349169031000,3.207031005859375,-55.031253814697266,-49.20000076293945,-13.481250762939453
1659026349179031000,3.217031005859375,-51.73125076293945,-49.20000076293945,-11.887500762939453
1659026349189031000,3.227031005859375,-48.73125076293945,-48.39375305175781,-11.137500762939453
1659026349199031000,3.237031005859375,-45.48750305175781,-47.212501525878906,-10.800000190734863
1659026349209031000,3.247031005859375,-42.82500076293945,-46.06875228881836,-11.193750381469727
1659026349219031000,3.257031005859375,-40.743751525878906,-44.71875,-11.981250762939453
1659026349229031000,3.267031005859375,-38.83125305175781,-43.25625228881836,-12.99375057220459
1659026349239031000,3.277031005859375,-37.63125228881836,-41.79375076293945,-14.381250381469727
1659026349249031000,3.287031005859375,-36.806251525878906,-40.20000076293945,-15.918750762939453
1659026349259031000,3.297031005859375,-36.54375076293945,-39.01875305175781,-17.8125
1659026349269031000,3.307031005859375,-36.337501525878906,-38.4375,-19.42500114440918
1659026349279031000,3.317031005859375,-36.78750228881836,-37.743751525878906,-21.131250381469727
1659026349289031000,3.327031005859375,-37.38750076293945,-37.16250228881836,-22.650001525878906
1659026349299031000,3.337031005859375,-37.875,-36.86250305175781,-23.90625
1659026349309031000,3.347031005859375,-38.79375076293945,-36.69375228881836,-25.14375114440918
1659026349319031000,3.357031005859375,-39.618751525878906,-36.39375305175781,-25.912500381469727
1659026349329031000,3.367031005859375,-40.51875305175781,-36.337501525878906,-26.437501907348633
1659026349339031000,3.377031005859375,-41.00625228881836,-36.243751525878906,-26.943750381469727
1659026349349031000,3.387031005859375,-41.64375305175781,-36.09375,-27.375001907348633
1659026349359031000,3.397031005859375,-42.22500228881836,-36.01875305175781,-27.468751907348633
1659026349369031000,3.407031005859375,-42.48750305175781,-36.01875305175781,-27.431251525878906
1659026349379031000,3.417031005859375,-42.84375,-36,-27.506250381469727
1659026349389031000,3.427031005859375,-43.16250228881836,-35.94375228881836,-27.431251525878906
1659026349399031000,3.437031005859375,-43.35000228881836,-36.03750228881836,-27.48750114440918
1659026349409031000,3.447031005859375,-43.44375228881836,-36.26250076293945,-27.562501907348633
1659026349419031000,3.457031005859375,-43.81875228881836,-36.28125,-27.450000762939453
1659026349429031000,3.467031005859375,-43.95000076293945,-36.375,-27.30000114440918
1659026349439031000,3.477031005859375,-44.38125228881836,-36.54375076293945,-27.356250762939453
1659026349449031000,3.487031005859375,-44.73750305175781,-36.618751525878906,-27.58125114440918
1659026349459031000,3.497031005859375,-45.07500076293945,-36.82500076293945,-27.693750381469727
1659026349469031000,3.507031005859375,-45.35625076293945,-37.14375305175781,-27.881250381469727
1659026349479031000,3.517031005859375,-45.58125305175781,-37.275001525878906,-28.200000762939453
1659026349489031000,3.527031005859375,-45.82500076293945,-37.275001525878906,-28.42500114440918
1659026349499031000,3.537031005859375,-45.900001525878906,-37.29375076293945,-28.500001907348633
1659026349509031000,3.547031005859375,-46.14375305175781,-37.42500305175781,-28.70625114440918
1659026349519031000,3.557031005859375,-46.25625228881836,-37.44375228881836,-28.89375114440918
1659026349529031000,3.567031005859375,-46.3125,-37.63125228881836,-29.043750762939453
1659026349539031000,3.577031005859375,-46.29375076293945,-37.51875305175781,-29.043750762939453
1659026349549031000,3.587031005859375,-46.650001525878906,-37.40625,-29.08125114440918
1659026349559031000,3.597031005859375,-46.70625305175781,-37.57500076293945,-29.100000381469727
1659026349569031000,3.607031005859375,-46.80000305175781,-37.66875076293945,-29.325000762939453
1659026349579031000,3.617031005859375,-46.837501525878906,-37.96875,-29.493751525878906
1659026349589031000,3.627031005859375,-47.19375228881836,-38.19375228881836,-29.437501907348633
1659026349599031000,3.637031005859375,-47.212501525878906,-38.47500228881836,-29.250001907348633
1659026349609031000,3.647031005859375,-47.45625305175781,-38.625,-29.08125114440918
1659026349619031000,3.657031005859375,-47.681251525878906,-38.962501525878906,-29.17500114440918
1659026349629031000,3.667031005859375,-47.56875228881836,-39.13125228881836,-29.212501525878906
1659026349639031000,3.677031005859375,-47.64375305175781,-39.46875,-28.875001907348633
1659026349649031000,3.687031005859375,-47.88750076293945,-39.73125076293945,-28.70625114440918
1659026349659031000,3.697031005859375,-48.22500228881836,-40.03125,-28.556251525878906
1659026349669031000,3.707031005859375,-48.22500228881836,-40.16250228881836,-28.650001525878906
1659026349679031000,3.717031005859375,-48.35625076293945,-40.275001525878906,-28.818750381469727
1659026349689031000,3.727031005859375,-48.35625076293945,-40.33125305175781,-28.950000762939453
1659026349699031000,3.737031005859375,-48.63750076293945,-40.5,-28.856250762939453
1659026349709031000,3.747031005859375,-48.562503814697266,-40.61250305175781,-28.837501525878906
1659026349719031000,3.757031005859375,-48.900001525878906,-40.63125228881836,-29.137500762939453
1659026349729031000,3.767031005859375,-48.86250305175781,-40.63125228881836,-29.100000381469727
1659026349739031000,3.777031005859375,-48.843753814697266,-40.51875305175781,-29.475000381469727
1659026349749031000,3.787031005859375,-48.843753814697266,-40.51875305175781,-29.512500762939453
1659026349759031000,3.797031005859375,-48.67500305175781,-40.61250305175781,-29.662500381469727
1659026349769031000,3.807031005859375,-48.69375228881836,-40.6875,-29.700000762939453
1659026349779031000,3.817031005859375,-48.618751525878906,-40.76250076293945,-29.83125114440918
1659026349789031000,3.827031005859375,-48.76875305175781,-40.95000076293945,-30.131250381469727
1659026349799031000,3.837031005859375,-48.50625228881836,-41.08125305175781,-30.262500762939453
1659026349809031000,3.847031005859375,-48.656253814697266,-41.25,-30.318750381469727
1659026349819031000,3.857031005859375,-48.656253814697266,-41.25,-30.131250381469727
1659026349829031000,3.867031005859375,-48.806251525878906,-41.4375,-30.20625114440918
1659026349839031000,3.877031005859375,-48.97500228881836,-41.53125,-30.11250114440918
1659026349849031000,3.887031005859375,-48.97500228881836,-41.60625076293945,-29.92500114440918
1659026349859031000,3.897031005859375,-48.843753814697266,-41.60625076293945,-29.64375114440918
1659026349869031000,3.907031005859375,-48.900001525878906,-41.79375076293945,-29.36250114440918
1659026349879031000,3.917031005859375,-49.14375305175781,-41.79375076293945,-29.100000381469727
1659026349889031000,3.927031005859375,-49.23750305175781,-42.13125228881836,-28.743751525878906
1659026349899031000,3.937031005859375,-49.500003814697266,-42.375,-28.481250762939453
1659026349909031000,3.947031005859375,-49.406253814697266,-42.22500228881836,-28.162500381469727
1659026349919031000,3.957031005859375,-49.53750228881836,-42.63750076293945,-27.900001525878906
1659026349929031000,3.967031005859375,-49.650001525878906,-42.84375,-27.693750381469727
1659026349939031000,3.977031005859375,-49.72500228881836,-42.9375,-27.468751907348633
1659026349949031000,3.987031005859375,-49.89375305175781,-42.806251525878906,-27.056251525878906
1659026349959031000,3.997031005859375,-49.66875076293945,-42.67500305175781,-26.381250381469727
1659026349969031000,4.007031005859375,-49.51875305175781,-42.48750305175781,-26.062501907348633
1659026349979031000,4.017031005859375,-49.57500076293945,-42.48750305175781,-25.70625114440918
1659026349989031000,4.027031005859375,-49.81875228881836,-42.39375305175781,-25.125001907348633
1659026349999031000,4.037031005859375,-49.781253814697266,-42.09375,-24.67500114440918
1659026350009031000,4.047031005859375,-50.00625228881836,-42.11250305175781,-24.11250114440918
1659026350019031000,4.057031005859375,-50.19375228881836,-42.150001525878906,-23.681251525878906
1659026350029031000,4.067031005859375,-50.08125305175781,-42.150001525878906,-23.17500114440918
1659026350039031000,4.077031005859375,-50.19375228881836,-42.30000305175781,-22.98750114440918
1659026350049031000,4.087031005859375,-50.32500076293945,-42.150001525878906,-22.650001525878906
1659026350059031000,4.097031005859375,-50.306251525878906,-41.92500305175781,-22.293750762939453
1659026350069031000,4.107031005859375,-50.55000305175781,-42.1875,-22.03125
1659026350079031000,4.117031005859375,-50.66250228881836,-41.962501525878906,-21.525001525878906
1659026350089031000,4.127031005859375,-50.41875076293945,-41.79375076293945,-21.09375
1659026350099031000,4.137031005859375,-50.38125228881836,-41.775001525878906,-20.793750762939453
1659026350109031000,4.147031005859375,-50.493751525878906,-41.625,-20.306251525878906
1659026350119031000,4.157031005859375,-50.45625305175781,-41.60625076293945,-19.668750762939453
1659026350129031000,4.167031005859375,-50.56875228881836,-41.4375,-19.162500381469727
1659026350139031000,4.177031005859375,-50.47500228881836,-41.83125305175781,-18.75
1659026350149031000,4.187031005859375,-50.36250305175781,-41.71875,-18.356250762939453
1659026350159031000,4.197031005859375,-50.493751525878906,-41.75625228881836,-18.20625114440918
1659026350169031000,4.207031005859375,-50.531253814697266,-41.70000076293945,-18.131250381469727
1659026350179031000,4.217031005859375,-50.531253814697266,-41.625,-17.850000381469727
1659026350189031000,4.227031005859375,-50.51250076293945,-41.587501525878906,-17.90625
1659026350199031000,4.237031005859375,-50.681251525878906,-41.55000305175781,-18.262500762939453
1659026350209031000,4.247031005859375,-50.55000305175781,-41.75625228881836,-18.67500114440918
1659026350219031000,4.257031005859375,-50.79375076293945,-41.55000305175781,-18.75
1659026350229031000,4.267031005859375,-50.85000228881836,-41.47500228881836,-18.900001525878906
1659026350239031000,4.277031005859375,-50.64375305175781,-41.53125,-19.23750114440918
1659026350249031000,4.287031005859375,-50.92500305175781,-41.4375,-19.556251525878906
1659026350259031000,4.297031005859375,-50.94375228881836,-41.23125076293945,-20.08125114440918
1659026350269031000,4.307031005859375,-51.093753814697266,-41.400001525878906,-20.756250381469727
1659026350279031000,4.317031005859375,-50.962501525878906,-41.493751525878906,-21.09375
1659026350289031000,4.327031005859375,-50.94375228881836,-41.34375,-21.825000762939453
1659026350299031000,4.337031005859375,-50.587501525878906,-41.19375228881836,-22.59375
1659026350309031000,4.347031005859375,-50.306251525878906,-41.025001525878906,-23.36250114440918
1659026350319031000,4.357031005859375,-50.32500076293945,-40.76250076293945,-24.11250114440918
1659026350329031000,4.367031005859375,-50.025001525878906,-40.66875076293945,-24.787500381469727
1659026350339031000,4.377031005859375,-49.837501525878906,-40.61250305175781,-25.162500381469727
1659026350349031000,4.387031005859375,-49.593753814697266,-40.35000228881836,-25.368751525878906
1659026350359031000,4.397031005859375,-49.38750076293945,-40.181251525878906,-25.650001525878906
1659026350369031000,4.407031005859375,-49.33125305175781,-40.087501525878906,-25.500001907348633
1659026350379031000,4.417031005859375,-49.218753814697266,-40.25625228881836,-25.61250114440918
1659026350389031000,4.427031005859375,-49.42500305175781,-40.368751525878906,-25.856250762939453
1659026350399031000,4.437031005859375,-49.33125305175781,-40.72500228881836,-25.912500381469727
1659026350409031000,4.447031005859375,-49.44375228881836,-41.00625228881836,-25.89375114440918
1659026350419031000,4.457031005859375,-49.44375228881836,-41.26875305175781,-25.968751907348633
1659026350429031000,4.467031005859375,-49.51875305175781,-41.64375305175781,-25.875001907348633
1659026350439031000,4.477031005859375,-49.81875228881836,-41.94375228881836,-26.100000381469727
1659026350449031000,4.487031005859375,-49.875003814697266,-42.11250305175781,-26.212501525878906
1659026350459031000,4.497031005859375,-50.00625228881836,-42.11250305175781,-26.437501907348633
1659026350469031000,4.507031005859375,-49.89375305175781,-42.31875228881836,-26.475000381469727
1659026350479031000,4.517031005859375,-49.89375305175781,-42.16875076293945,-26.250001907348633
1659026350489031000,4.527031005859375,-49.687503814697266,-42.01875305175781,-26.418750762939453
1659026350499031000,4.537031005859375,-49.593753814697266,-41.98125076293945,-26.625001907348633
1659026350509031000,4.547031005859375,-49.53750228881836,-41.75625228881836,-27.000001907348633
1659026350519031000,4.557031005859375,-49.462501525878906,-41.55000305175781,-26.943750381469727
1659026350529031000,4.567031005859375,-49.53750228881836,-41.60625076293945,-27.11250114440918
1659026350539031000,4.577031005859375,-49.63125228881836,-41.53125,-27.20625114440918
1659026350549031000,4.587031005859375,-49.57500076293945,-41.36250305175781,-27.337501525878906
1659026350559031000,4.597031005859375,-49.51875305175781,-41.53125,-27.900001525878906
1659026350569031000,4.607031005859375,-49.687503814697266,-41.60625076293945,-28.068750381469727
1659026350579031000,4.617031005859375,-49.931251525878906,-41.493751525878906,-28.218751907348633
1659026350589031000,4.627031005859375,-49.85625076293945,-41.71875,-28.42500114440918
1659026350599031000,4.637031005859375,-49.81875228881836,-41.73750305175781,-28.70625114440918
1659026350609031000,4.647031005859375,-49.72500228881836,-41.94375228881836,-28.931251525878906
1659026350619031000,4.657031005859375,-49.76250076293945,-42.056251525878906,-28.856250762939453
1659026350629031000,4.667031005859375,-49.66875076293945,-42.13125228881836,-29.062501907348633
1659026350639031000,4.677031005859375,-49.76250076293945,-42.056251525878906,-28.725000381469727
1659026350649031000,4.687031005859375,-49.70625305175781,-42.35625076293945,-28.80000114440918
1659026350659031000,4.697031005859375,-49.462501525878906,-42.41250228881836,-28.575000762939453
1659026350669031000,4.707031005859375,-49.57500076293945,-42.243751525878906,-28.368751525878906
1659026350679031000,4.717031005859375,-49.556251525878906,-42.431251525878906,-28.293750762939453
1659026350689031000,4.727031005859375,-49.63125228881836,-42.39375305175781,-28.125001907348633
1659026350699031000,4.737031005859375,-49.593753814697266,-42.431251525878906,-28.125001907348633
1659026350709031000,4.747031005859375,-49.91250228881836,-42.525001525878906,-27.76875114440918
1659026350719031000,4.757031005859375,-49.931251525878906,-42.67500305175781,-27.525001525878906
1659026350729031000,4.767031005859375,-50.08125305175781,-42.60000228881836,-27.20625114440918
1659026350739031000,4.777031005859375,-50.36250305175781,-42.712501525878906,-26.981250762939453
1659026350749031000,4.787031005859375,-50.51250076293945,-43.05000305175781,-26.812501907348633
1659026350759031000,4.797031005859375,-50.587501525878906,-43.10625076293945,-26.625001907348633
1659026350769031000,4.807031005859375,-50.60625076293945,-43.01250076293945,-26.231250762939453
1659026350779031000,4.817031005859375,-50.55000305175781,-42.993751525878906,-26.006250381469727
1659026350789031000,4.827031005859375,-50.36250305175781,-43.06875228881836,-25.481250762939453
1659026350799031000,4.837031005859375,-50.45625305175781,-43.06875228881836,-25.350000381469727
1659026350809031000,4.847031005859375,-50.56875228881836,-43.20000076293945,-24.975000381469727
1659026350819031000,4.857031005859375,-50.493751525878906,-43.25625228881836,-24.918750762939453
1659026350829031000,4.867031005859375,-50.493751525878906,-43.35000228881836,-24.600000381469727
1659026350839031000,4.877031005859375,-50.718753814697266,-43.44375228881836,-24.375001907348633
1659026350849031000,4.887031005859375,-50.70000076293945,-43.556251525878906,-24.20625114440918
1659026350859031000,4.897031005859375,-50.868751525878906,-43.61250305175781,-23.756250381469727
1659026350869031000,4.907031005859375,-50.962501525878906,-43.72500228881836,-23.700000762939453
1659026350879031000,4.917031005859375,-50.92500305175781,-43.80000305175781,-23.418750762939453
1659026350889031000,4.927031005859375,-50.88750076293945,-43.70625305175781,-23.325000762939453
1659026350899031000,4.937031005859375,-50.85000228881836,-43.72500228881836,-22.931251525878906
1659026350909031000,4.947031005859375,-50.88750076293945,-43.66875076293945,-22.631250381469727
1659026350919031000,4.957031005859375,-50.718753814697266,-43.57500076293945,-22.03125
1659026350929031000,4.967031005859375,-50.906253814697266,-43.78125,-21.5625
1659026350939031000,4.977031005859375,-50.79375076293945,-43.96875,-21.225000381469727
1659026350949031000,4.987031005859375,-50.64375305175781,-44.10000228881836,-20.943750381469727
1659026350959031000,4.997031005859375,-50.79375076293945,-44.10000228881836,-20.756250381469727
1659026350969031000,5.007031005859375,-50.775001525878906,-44.19375228881836,-20.36250114440918
1659026350979031000,5.017031005859375,-51.11250305175781,-44.26875305175781,-20.25
1659026350989031000,5.027031005859375,-50.94375228881836,-44.26875305175781,-20.0625
1659026350999031000,5.037031005859375,-51.07500076293945,-44.56875228881836,-20.15625
1659026351009031000,5.047031005859375,-51.01875305175781,-44.625,-20.36250114440918
1659026351019031000,5.057031005859375,-50.962501525878906,-44.71875,-20.418750762939453
1659026351029031000,5.067031005859375,-50.962501525878906,-44.60625076293945,-20.475000381469727
1659026351039031000,5.077031005859375,-50.812503814697266,-44.79375076293945,-20.231250762939453
1659026351049031000,5.087031005859375,-50.66250228881836,-44.90625,-20.043750762939453
1659026351059031000,5.097031005859375,-50.55000305175781,-45.16875076293945,-20.006250381469727
1659026351069031000,5.107031005859375,-50.51250076293945,-45.45000076293945,-19.575000762939453
1659026351079031000,5.117031005859375,-50.32500076293945,-45.45000076293945,-19.181251525878906
1659026351089031000,5.127031005859375,-50.32500076293945,-45.41250228881836,-18.693750381469727
1659026351099031000,5.137031005859375,-50.60625076293945,-45.41250228881836,-18.262500762939453
1659026351109031000,5.147031005859375,-50.70000076293945,-45.618751525878906,-17.962501525878906
1659026351119031000,5.157031005859375,-50.73750305175781,-45.54375076293945,-17.775001525878906
1659026351129031000,5.167031005859375,-50.83125305175781,-45.54375076293945,-17.962501525878906
1659026351139031000,5.177031005859375,-50.64375305175781,-45.54375076293945,-17.64375114440918
1659026351149031000,5.187031005859375,-50.75625228881836,-45.35625076293945,-17.850000381469727
1659026351159031000,5.197031005859375,-50.66250228881836,-45.30000305175781,-18.056251525878906
1659026351169031000,5.207031005859375,-50.56875228881836,-45.28125,-18.356250762939453
1659026351179031000,5.217031005859375,-50.306251525878906,-45.30000305175781,-18.58125114440918
1659026351189031000,5.227031005859375,-50.51250076293945,-45.26250076293945,-18.712501525878906
1659026351199031000,5.237031005859375,-50.437503814697266,-45.31875228881836,-18.75
1659026351209031000,5.247031005859375,-50.38125228881836,-45.30000305175781,-18.450000762939453
1659026351219031000,5.257031005859375,-50.28750228881836,-45.337501525878906,-18.450000762939453
1659026351229031000,5.267031005859375,-50.306251525878906,-45.50625228881836,-18.150001525878906
1659026351239031000,5.277031005859375,-50.26875305175781,-45.48750305175781,-17.90625
1659026351249031000,5.287031005859375,-50.19375228881836,-45.39375305175781,-17.34375
1659026351259031000,5.297031005859375,-50.250003814697266,-45.22500228881836,-16.650001525878906
1659026351269031000,5.307031005859375,-50.062503814697266,-45.11250305175781,-15.843750953674316
1659026351279031000,5.317031005859375,-50.28750228881836,-45.20625305175781,-15.168750762939453
1659026351289031000,5.327031005859375,-50.13750076293945,-45.11250305175781,-14.343750953674316
1659026351299031000,5.337031005859375,-50.156253814697266,-44.79375076293945,-13.725000381469727
1659026351309031000,5.347031005859375,-49.91250228881836,-44.55000305175781,-13.18125057220459
1659026351319031000,5.357031005859375,-49.91250228881836,-44.4375,-12.487500190734863
1659026351329031000,5.367031005859375,-49.66875076293945,-44.28750228881836,-11.850000381469727
1659026351339031000,5.377031005859375,-49.42500305175781,-44.0625,-11.643750190734863
1659026351349031000,5.387031005859375,-49.218753814697266,-43.81875228881836,-11.512500762939453
1659026351359031000,5.397031005859375,-48.60000228881836,-43.38750076293945,-11.21250057220459
1659026351369031000,5.407031005859375,-48.41250228881836,-43.10625076293945,-11.34375
1659026351379031000,5.417031005859375,-48.07500076293945,-42.86250305175781,-11.193750381469727
1659026351389031000,5.427031005859375,-47.962501525878906,-42.337501525878906,-11.418750762939453
1659026351399031000,5.437031005859375,-47.587501525878906,-41.73750305175781,-11.700000762939453
1659026351409031000,5.447031005859375,-47.25,-41.34375,-12.33750057220459
1659026351419031000,5.457031005859375,-46.95000076293945,-40.837501525878906,-12.825000762939453
1659026351429031000,5.467031005859375,-46.53750228881836,-40.51875305175781,-13.46250057220459
1659026351439031000,5.477031005859375,-46.29375076293945,-40.03125,-14.250000953674316
1659026351449031000,5.487031005859375,-45.712501525878906,-39.618751525878906,-15.318750381469727
1659026351459031000,5.497031005859375,-45,-39.243751525878906,-16.462501525878906
1659026351469031000,5.507031005859375,-44.13750076293945,-39.056251525878906,-17.36250114440918
1659026351479031000,5.517031005859375,-43.33125305175781,-39.11250305175781,-18.506250381469727
1659026351489031000,5.527031005859375,-42.01875305175781,-39.11250305175781,-19.61250114440918
1659026351499031000,5.537031005859375,-40.42500305175781,-39.58125305175781,-20.887500762939453
1659026351509031000,5.547031005859375,-38.587501525878906,-40.125,-22.162500381469727
1659026351519031000,5.557031005859375,-36.30000305175781,-41.4375,-23.625
1659026351529031000,5.567031005859375,-33.806251525878906,-43.05000305175781,-24.76875114440918
1659026351539031000,5.577031005859375,-30.993751525878906,-45.30000305175781,-26.418750762939453
1659026351549031000,5.587031005859375,-27.731250762939453,-48.468753814697266,-28.200000762939453
1659026351559031000,5.597031005859375,-24.337501525878906,-52.556251525878906,-29.775001525878906
1659026351569031000,5.607031005859375,-21.806251525878906,-58.01250076293945,-31.781251907348633
1659026351579031000,5.617031005859375,-19.668750762939453,-64.5,-33.88125228881836
1659026351589031000,5.627031005859375,-18.95625114440918,-72.20625305175781,-36.45000076293945
1659026351599031000,5.637031005859375,-20.287500381469727,-80.15625,-39.26250076293945
1659026351609031000,5.647031005859375,-23.92500114440918,-88.25625610351562,-41.94375228881836
1659026351619031000,5.657031005859375,-29.756250381469727,-95.85000610351562,-44.15625
1659026351629031000,5.667031005859375,-37.78125,-101.92500305175781,-46.05000305175781
1659026351639031000,5.677031005859375,-47.56875228881836,-106.25625610351562,-47.28750228881836
1659026351649031000,5.687031005859375,-58.312503814697266,-108.7125015258789,-47.90625
1659026351659031000,5.697031005859375,-69.6187515258789,-109.06875610351562,-47.55000305175781
1659026351669031000,5.707031005859375,-80.34375,-107.1187515258789,-46.10625076293945
1659026351679031000,5.717031005859375,-89.88750457763672,-103.96875762939453,-43.85625076293945
1659026351689031000,5.727031005859375,-98.04375457763672,-99.78750610351562,-41.17500305175781
1659026351699031000,5.737031005859375,-104.4937515258789,-94.91250610351562,-37.96875
1659026351709031000,5.747031005859375,-109.29375457763672,-90.60000610351562,-34.556251525878906
1659026351719031000,5.757031005859375,-112.78125762939453,-86.36250305175781,-31.500001907348633
1659026351729031000,5.767031005859375,-114.8062515258789,-82.53750610351562,-28.368751525878906
1659026351739031000,5.777031005859375,-116.2125015258789,-79.51875305175781,-25.61250114440918
1659026351749031000,5.787031005859375,-117.03750610351562,-77.1187515258789,-23.118751525878906
1659026351759031000,5.797031005859375,-117.50625610351562,-74.71875,-20.73750114440918
1659026351769031000,5.807031005859375,-117.5250015258789,-72.76875305175781,-19.012500762939453
1659026351779031000,5.817031005859375,-117.5250015258789,-71.3062515258789,-17.8125
1659026351789031000,5.827031005859375,-117.46875762939453,-69.63750457763672,-17.08125114440918
1659026351799031000,5.837031005859375,-117.22500610351562,-68.32500457763672,-16.59375
1659026351809031000,5.847031005859375,-117.58125305175781,-67.25625610351562,-16.6875
1659026351819031000,5.857031005859375,-117.58125305175781,-65.75625610351562,-16.89375114440918
1659026351829031000,5.867031005859375,-117.84375762939453,-64.48125457763672,-17.418750762939453
1659026351839031000,5.877031005859375,-118.01250457763672,-63.337501525878906,-18.337501525878906
1659026351849031000,5.887031005859375,-118.38750457763672,-62.00625228881836,-19.200000762939453
1659026351859031000,5.897031005859375,-118.76250457763672,-60.69375228881836,-20.118751525878906
1659026351869031000,5.907031005859375,-119.0250015258789,-59.812503814697266,-20.962501525878906
1659026351879031000,5.917031005859375,-119.36250305175781,-58.875003814697266,-21.95625114440918
1659026351889031000,5.927031005859375,-119.4937515258789,-57.67500305175781,-22.61250114440918
1659026351899031000,5.937031005859375,-119.71875762939453,-57.01875305175781,-23.36250114440918
1659026351909031000,5.947031005859375,-119.90625762939453,-56.56875228881836,-24.075000762939453
1659026351919031000,5.957031005859375,-120.0562515258789,-56.56875228881836,-24.900001525878906
1659026351929031000,5.967031005859375,-120.0562515258789,-57.07500076293945,-25.462501525878906
1659026351939031000,5.977031005859375,-120.09375762939453,-57.88125228881836,-25.968751907348633
1659026351949031000,5.987031005859375,-120.1500015258789,-58.743751525878906,-26.287500381469727
1659026351959031000,5.997031005859375,-120.26250457763672,-60.281253814697266,-26.512500762939453
1659026351969031000,6.007031005859375,-120.2437515258789,-62.23125076293945,-26.662500381469727
1659026351979031000,6.017031005859375,-120.07500457763672,-64.3687515258789,-26.943750381469727
1659026351989031000,6.027031005859375,-119.66250610351562,-66.39375305175781,-26.943750381469727
1659026351999031000,6.037031005859375,-119.17500305175781,-68.23125457763672,-26.73750114440918
1659026352009031000,6.047031005859375,-118.8375015258789,-70.14375305175781,-26.625001907348633
1659026352019031000,6.057031005859375,-118.31250762939453,-71.7750015258789,-26.512500762939453
1659026352029031000,6.067031005859375,-118.05000305175781,-72.97500610351562,-26.287500381469727
1659026352039031000,6.077031005859375,-117.54375457763672,-74.0625,-25.968751907348633
1659026352049031000,6.087031005859375,-117.37500762939453,-74.34375,-25.631250381469727
1659026352059031000,6.097031005859375,-117.50625610351562,-74.60625457763672,-25.200000762939453
1659026352069031000,6.107031005859375,-117.67500305175781,-74.73750305175781,-24.806251525878906
1659026352079031000,6.117031005859375,-118.0875015258789,-74.73750305175781,-24.937501907348633
1659026352089031000,6.127031005859375,-118.3687515258789,-74.23125457763672,-24.787500381469727
1659026352099031000,6.137031005859375,-119.17500305175781,-73.80000305175781,-24.618751525878906
1659026352109031000,6.147031005859375,-120.03750610351562,-73.5562515258789,-24.806251525878906
1659026352119031000,6.157031005859375,-121.14375305175781,-72.82500457763672,-25.087501525878906
1659026352129031000,6.167031005859375,-122.1187515258789,-72.31875610351562,-25.350000381469727
1659026352139031000,6.177031005859375,-123.46875762939453,-71.04375457763672,-25.950000762939453
1659026352149031000,6.187031005859375,-124.98750305175781,-69.54375457763672,-26.681251525878906
1659026352159031000,6.197031005859375,-126.95625305175781,-67.61250305175781,-26.981250762939453
1659026352169031000,6.207031005859375,-128.8312530517578,-65.47500610351562,-27.562501907348633
1659026352179031000,6.217031005859375,-130.4250030517578,-63.056251525878906,-28.387500762939453
1659026352189031000,6.227031005859375,-132.16876220703125,-60.31875228881836,-29.400001525878906
1659026352199031000,6.237031005859375,-133.8937530517578,-57.48750305175781,-30.131250381469727
1659026352209031000,6.247031005859375,-135.54376220703125,-54.618751525878906,-31.087501525878906
1659026352219031000,6.257031005859375,-136.74375915527344,-52.25625228881836,-31.818750381469727
1659026352229031000,6.267031005859375,-138.15000915527344,-50.13750076293945,-32.70000076293945
1659026352239031000,6.277031005859375,-138.90000915527344,-48.31875228881836,-33.26250076293945
1659026352249031000,6.287031005859375,-139.8937530517578,-46.78125,-33.9375
1659026352259031000,6.297031005859375,-140.51251220703125,-45.525001525878906,-34.42500305175781
1659026352269031000,6.307031005859375,-140.85000610351562,-44.66250228881836,-34.59375
1659026352279031000,6.317031005859375,-141.03750610351562,-44.118751525878906,-34.70625305175781
1659026352289031000,6.327031005859375,-141.1125030517578,-43.80000305175781,-34.743751525878906
1659026352299031000,6.337031005859375,-141.2062530517578,-43.275001525878906,-34.91250228881836
1659026352309031000,6.347031005859375,-140.79376220703125,-42.82500076293945,-34.837501525878906
1659026352319031000,6.357031005859375,-140.86875915527344,-42.45000076293945,-35.118751525878906
1659026352329031000,6.367031005859375,-140.49375915527344,-42.337501525878906,-35.17500305175781
1659026352339031000,6.377031005859375,-140.23126220703125,-42.375,-35.25
1659026352349031000,6.387031005859375,-139.93125915527344,-42.26250076293945,-35.400001525878906
1659026352359031000,6.397031005859375,-139.72500610351562,-42.056251525878906,-35.70000076293945
1659026352369031000,6.407031005859375,-139.8000030517578,-41.73750305175781,-35.79375076293945
1659026352379031000,6.417031005859375,-139.6125030517578,-41.8125,-35.98125076293945
1659026352389031000,6.427031005859375,-139.66876220703125,-41.70000076293945,-36.150001525878906
1659026352399031000,6.437031005859375,-139.35000610351562,-41.73750305175781,-36.39375305175781
1659026352409031000,6.447031005859375,-139.36875915527344,-41.64375305175781,-36.67500305175781
1659026352419031000,6.457031005859375,-139.59375,-41.306251525878906,-36.97500228881836
1659026352429031000,6.467031005859375,-139.85626220703125,-40.81875228881836,-37.23750305175781
1659026352439031000,6.477031005859375,-140.04376220703125,-40.61250305175781,-37.6875
1659026352449031000,6.487031005859375,-139.81875610351562,-40.38750076293945,-38.212501525878906
1659026352459031000,6.497031005859375,-139.8000030517578,-39.993751525878906,-38.53125
1659026352469031000,6.507031005859375,-139.66876220703125,-39.73125076293945,-39.03750228881836
1659026352479031000,6.517031005859375,-139.74375915527344,-39.39375305175781,-39
1659026352489031000,6.527031005859375,-139.48126220703125,-39.09375,-39.09375
1659026352499031000,6.537031005859375,-139.20001220703125,-38.85000228881836,-39.30000305175781
1659026352509031000,6.547031005859375,-138.97500610351562,-38.73750305175781,-39.50625228881836
1659026352519031000,6.557031005859375,-138.75,-38.38125228881836,-39.54375076293945
1659026352529031000,6.567031005859375,-138.33750915527344,-38.26875305175781,-39.525001525878906
1659026352539031000,6.577031005859375,-138.1875,-38.23125076293945,-39.35625076293945
1659026352549031000,6.587031005859375,-137.71875,-38.10000228881836,-39.20625305175781
1659026352559031000,6.597031005859375,-136.8937530517578,-37.98750305175781,-39.20625305175781
1659026352569031000,6.607031005859375,-136.44375610351562,-38.0625,-39.16875076293945
1659026352579031000,6.617031005859375,-135.80625915527344,-38.23125076293945,-38.88750076293945
1659026352589031000,6.627031005859375,-134.86875915527344,-38.53125,-38.51250076293945
1659026352599031000,6.637031005859375,-134.19375610351562,-39.243751525878906,-38.17500305175781
1659026352609031000,6.647031005859375,-133.72500610351562,-39.69375228881836,-37.875
1659026352619031000,6.657031005859375,-132.9562530517578,-40.21875,-37.63125228881836
1659026352629031000,6.667031005859375,-132.54376220703125,-41.10000228881836,-37.462501525878906
1659026352639031000,6.677031005859375,-132.1875,-41.88750076293945,-37.44375228881836
1659026352649031000,6.687031005859375,-131.70001220703125,-42.45000076293945,-37.087501525878906
1659026352659031000,6.697031005859375,-131.49375915527344,-43.25625228881836,-36.76875305175781
1659026352669031000,6.707031005859375,-131.41876220703125,-43.98750305175781,-36.54375076293945
1659026352679031000,6.717031005859375,-130.91250610351562,-44.587501525878906,-36.337501525878906
1659026352689031000,6.727031005859375,-130.8000030517578,-45.525001525878906,-35.94375228881836
1659026352699031000,6.737031005859375,-130.5187530517578,-46.181251525878906,-35.56875228881836
1659026352709031000,6.747031005859375,-130.46250915527344,-46.931251525878906,-35.04375076293945
1659026352719031000,6.757031005859375,-130.4250030517578,-48.093753814697266,-34.63125228881836
1659026352729031000,6.767031005859375,-130.36875915527344,-49.16250228881836,-34.33125305175781
1659026352739031000,6.777031005859375,-130.20001220703125,-49.89375305175781,-34.14375305175781
1659026352749031000,6.787031005859375,-130.25625610351562,-50.73750305175781,-34.087501525878906
1659026352759031000,6.797031005859375,-130.55625915527344,-51.20625305175781,-34.03125
1659026352769031000,6.807031005859375,-130.36875915527344,-51.54375076293945,-34.125
1659026352779031000,6.817031005859375,-131.00625610351562,-51.73125076293945,-34.21875
1659026352789031000,6.827031005859375,-131.25,-51.618751525878906,-34.61250305175781
1659026352799031000,6.837031005859375,-131.53125,-51.16875076293945,-34.650001525878906
1659026352809031000,6.847031005859375,-132.09375,-50.85000228881836,-34.89375305175781
1659026352819031000,6.857031005859375,-132.41250610351562,-50.56875228881836,-34.98750305175781
1659026352829031000,6.867031005859375,-133.03125,-50.062503814697266,-35.08125305175781
1659026352839031000,6.877031005859375,-133.4250030517578,-49.80000305175781,-35.212501525878906
1659026352849031000,6.887031005859375,-134.02500915527344,-49.33125305175781,-35.28750228881836
1659026352859031000,6.897031005859375,-134.32501220703125,-49.16250228881836,-35.493751525878906
1659026352869031000,6.907031005859375,-134.66250610351562,-48.95625305175781,-35.26875305175781
1659026352879031000,6.917031005859375,-135.15000915527344,-48.63750076293945,-35.41875076293945
1659026352889031000,6.927031005859375,-135.375,-48.22500228881836,-35.55000305175781
1659026352899031000,6.937031005859375,-135.8625030517578,-47.625,-35.962501525878906
1659026352909031000,6.947031005859375,-135.73126220703125,-47.17500305175781,-36.30000305175781
1659026352919031000,6.957031005859375,-135.8625030517578,-46.462501525878906,-36.50625228881836
1659026352929031000,6.967031005859375,-135.7687530517578,-46.05000305175781,-36.91875076293945
1659026352939031000,6.977031005859375,-135.63751220703125,-45.431251525878906,-37.087501525878906
1659026352949031000,6.987031005859375,-135.75,-44.681251525878906,-37.5
1659026352959031000,6.997031005859375,-135.80625915527344,-44.15625,-37.80000305175781
1659026352969031000,7.007031005859375,-135.80625915527344,-43.40625,-38.212501525878906
1659026352979031000,7.017031005859375,-135.61875915527344,-42.58125305175781,-38.493751525878906
1659026352989031000,7.027031005859375,-135.82501220703125,-41.66250228881836,-38.8125
1659026352999031000,7.037031005859375,-135.8625030517578,-40.70625305175781,-39.28125
1659026353009031000,7.047031005859375,-136.3312530517578,-39.39375305175781,-39.65625
1659026353019031000,7.057031005859375,-136.5187530517578,-38.118751525878906,-40.25625228881836
1659026353029031000,7.067031005859375,-136.46250915527344,-36.97500228881836,-40.89375305175781
1659026353039031000,7.077031005859375,-136.72500610351562,-35.4375,-41.53125
1659026353049031000,7.087031005859375,-136.93125915527344,-34.05000305175781,-42.20625305175781
1659026353059031000,7.097031005859375,-137.21250915527344,-32.775001525878906,-42.82500076293945
1659026353069031000,7.107031005859375,-137.30625915527344,-31.51875114440918,-43.5
1659026353079031000,7.117031005859375,-137.49375915527344,-30.168750762939453,-44.23125076293945
1659026353089031000,7.127031005859375,-137.34375,-29.043750762939453,-45.1875
1659026353099031000,7.137031005859375,-137.0625,-27.993751525878906,-45.63750076293945
1659026353109031000,7.147031005859375,-136.8937530517578,-27.131250381469727,-46.20000076293945
1659026353119031000,7.157031005859375,-136.25625610351562,-26.531251907348633,-46.556251525878906
1659026353129031000,7.167031005859375,-135.52500915527344,-26.45625114440918,-46.72500228881836
1659026353139031000,7.177031005859375,-134.53125,-27.000001907348633,-46.44375228881836
1659026353149031000,7.187031005859375,-133.3312530517578,-28.012500762939453,-46.06875228881836
1659026353159031000,7.197031005859375,-131.66250610351562,-29.906251907348633,-45.243751525878906
1659026353169031000,7.207031005859375,-129.54376220703125,-32.25,-43.98750305175781
1659026353179031000,7.217031005859375,-127.33125305175781,-35.17500305175781,-42.88125228881836
1659026353189031000,7.227031005859375,-124.6500015258789,-38.25,-41.04375076293945
1659026353199031000,7.237031005859375,-121.44375610351562,-41.73750305175781,-39.60000228881836
1659026353209031000,7.247031005859375,-117.84375762939453,-45,-37.85625076293945
1659026353219031000,7.257031005859375,-113.92500305175781,-48.03750228881836,-36.31875228881836
1659026353229031000,7.267031005859375,-109.5562515258789,-50.56875228881836,-34.81875228881836
1659026353239031000,7.277031005859375,-104.7750015258789,-52.44375228881836,-33.54375076293945
1659026353249031000,7.287031005859375,-99.88125610351562,-53.775001525878906,-32.15625
1659026353259031000,7.297031005859375,-94.95000457763672,-54.35625076293945,-31.012500762939453
1659026353269031000,7.307031005859375,-89.92500305175781,-54.69375228881836,-30.20625114440918
1659026353279031000,7.317031005859375,-85.125,-54.243751525878906,-29.287500381469727
1659026353289031000,7.327031005859375,-80.60625457763672,-53.41875076293945,-28.500001907348633
1659026353299031000,7.337031005859375,-76.23750305175781,-52.25625228881836,-27.787500381469727
1659026353309031000,7.347031005859375,-72.35625457763672,-50.83125305175781,-27.056251525878906
1659026353319031000,7.357031005859375,-68.625,-49.687503814697266,-26.212501525878906
1659026353329031000,7.367031005859375,-65.625,-48.431251525878906,-25.593751907348633
1659026353339031000,7.377031005859375,-63.000003814697266,-47.41875076293945,-24.95625114440918
1659026353349031000,7.387031005859375,-60.60000228881836,-46.181251525878906,-24.375001907348633
1659026353359031000,7.397031005859375,-58.593753814697266,-45.26250076293945,-23.868751525878906
1659026353369031000,7.407031005859375,-56.906253814697266,-44.587501525878906,-23.325000762939453
1659026353379031000,7.417031005859375,-55.406253814697266,-44.118751525878906,-22.78125
1659026353389031000,7.427031005859375,-54.20625305175781,-43.72500228881836,-22.275001525878906
1659026353399031000,7.437031005859375,-53.55000305175781,-43.087501525878906,-21.787500381469727
1659026353409031000,7.447031005859375,-52.76250076293945,-42.712501525878906,-21.318750381469727
1659026353419031000,7.457031005859375,-51.97500228881836,-42.337501525878906,-20.981250762939453
1659026353429031000,7.467031005859375,-51.45000076293945,-42.26250076293945,-20.587501525878906
1659026353439031000,7.477031005859375,-51.20625305175781,-42.13125228881836,-20.17500114440918
1659026353449031000,7.487031005859375,-50.70000076293945,-41.98125076293945,-19.98750114440918
1659026353459031000,7.497031005859375,-50.625003814697266,-41.66250228881836,-19.725000381469727
1659026353469031000,7.507031005859375,-50.26875305175781,-41.60625076293945,-19.42500114440918
1659026353479031000,7.517031005859375,-50.04375076293945,-41.625,-19.21875
1659026353489031000,7.527031005859375,-50.025001525878906,-41.55000305175781,-18.975000381469727
1659026353499031000,7.537031005859375,-50.062503814697266,-41.36250305175781,-18.431251525878906
1659026353509031000,7.547031005859375,-50.26875305175781,-41.17500305175781,-18.243751525878906
1659026353519031000,7.557031005859375,-50.400001525878906,-41.13750076293945,-17.8125
1659026353529031000,7.567031005859375,-50.70000076293945,-41.25,-17.118751525878906
1659026353539031000,7.577031005859375,-50.775001525878906,-41.28750228881836,-16.6875
1659026353549031000,7.587031005859375,-50.88750076293945,-41.25,-15.99375057220459
1659026353559031000,7.597031005859375,-51.13125228881836,-41.47500228881836,-15.543750762939453
1659026353569031000,7.607031005859375,-51.03750228881836,-41.79375076293945,-15.15000057220459
1659026353579031000,7.617031005859375,-50.83125305175781,-42.13125228881836,-15.037500381469727
1659026353589031000,7.627031005859375,-50.587501525878906,-42.35625076293945,-14.700000762939453
1659026353599031000,7.637031005859375,-49.968753814697266,-42.39375305175781,-14.250000953674316
1659026353609031000,7.647031005859375,-49.593753814697266,-42.46875,-14.268750190734863
1659026353619031000,7.657031005859375,-49.031253814697266,-42.76875305175781,-14.006250381469727
1659026353629031000,7.667031005859375,-48.712501525878906,-42.97500228881836,-13.800000190734863
1659026353639031000,7.677031005859375,-48.35625076293945,-43.03125,-13.387500762939453
1659026353649031000,7.687031005859375,-48.150001525878906,-43.01250076293945,-12.862500190734863
1659026353659031000,7.697031005859375,-48.03750228881836,-43.20000076293945,-12.206250190734863
1659026353669031000,7.707031005859375,-47.66250228881836,-43.33125305175781,-11.456250190734863
1659026353679031000,7.717031005859375,-47.75625228881836,-43.53750228881836,-11.02500057220459
1659026353689031000,7.727031005859375,-47.53125,-43.931251525878906,-10.012500762939453
1659026353699031000,7.737031005859375,-47.8125,-44.25,-9.318750381469727
1659026353709031000,7.747031005859375,-47.92500305175781,-44.587501525878906,-8.887500762939453
1659026353719031000,7.757031005859375,-47.94375228881836,-44.79375076293945,-8.325000762939453
1659026353729031000,7.767031005859375,-47.88750076293945,-45.243751525878906,-7.706250190734863
1659026353739031000,7.777031005859375,-47.98125076293945,-45.58125305175781,-7.031250476837158
1659026353749031000,7.787031005859375,-48.30000305175781,-45.97500228881836,-6.768750190734863
1659026353759031000,7.797031005859375,-48.26250076293945,-46.70625305175781,-6.300000190734863
1659026353769031000,7.807031005859375,-48.337501525878906,-47.00625228881836,-6.037500381469727
1659026353779031000,7.817031005859375,-48.07500076293945,-47.34375,-5.681250095367432
1659026353789031000,7.827031005859375,-48.20625305175781,-47.90625,-5.362500190734863
1659026353799031000,7.837031005859375,-48.13125228881836,-48.562503814697266,-5.325000286102295
1659026353809031000,7.847031005859375,-48.35625076293945,-48.937503814697266,-5.362500190734863
1659026353819031000,7.857031005859375,-48.26250076293945,-49.368751525878906,-5.362500190734863
1659026353829031000,7.867031005859375,-47.962501525878906,-49.875003814697266,-5.212500095367432
1659026353839031000,7.877031005859375,-47.98125076293945,-49.95000076293945,-5.137500286102295
1659026353849031000,7.887031005859375,-47.98125076293945,-50.156253814697266,-5.118750095367432
1659026353859031000,7.897031005859375,-48.30000305175781,-50.681251525878906,-5.043750286102295
1659026353869031000,7.907031005859375,-48.187503814697266,-50.962501525878906,-4.96875
1659026353879031000,7.917031005859375,-48.01875305175781,-51.39375305175781,-4.6875
1659026353889031000,7.927031005859375,-47.66250228881836,-51.86250305175781,-4.518750190734863
1659026353899031000,7.937031005859375,-47.625,-52.01250076293945,-4.40625
1659026353909031000,7.947031005859375,-47.8125,-52.48125076293945,-3.9937500953674316
1659026353919031000,7.957031005859375,-47.66250228881836,-53.250003814697266,-3.6937501430511475
1659026353929031000,7.967031005859375,-47.51250076293945,-53.868751525878906,-3.4125001430511475
1659026353939031000,7.977031005859375,-47.13750076293945,-54.07500076293945,-3.0375001430511475
1659026353949031000,7.987031005859375,-46.837501525878906,-54.39375305175781,-2.7562501430511475
1659026353959031000,7.997031005859375,-46.837501525878906,-54.750003814697266,-2.418750047683716
1659026353969031000,8.007031005859375,-46.89375305175781,-55.031253814697266,-1.8562500476837158
1659026353979031000,8.017031005859375,-46.66875076293945,-55.743751525878906,-1.3687500953674316
1659026353989031000,8.027031005859374,-46.368751525878906,-55.70625305175781,-1.2375000715255737
1659026353999031000,8.037031005859374,-46.368751525878906,-55.89375305175781,-1.1437500715255737
1659026354009031000,8.047031005859376,-46.51875305175781,-56.306251525878906,-0.9375000596046448
1659026354019031000,8.057031005859375,-46.59375,-56.681251525878906,-1.03125
1659026354029031000,8.067031005859375,-46.51875305175781,-57.03750228881836,-0.8250000476837158
1659026354039031000,8.077031005859375,-46.462501525878906,-57.31875228881836,-0.768750011920929
1659026354049031000,8.087031005859375,-46.5,-57.73125076293945,-1.162500023841858
1659026354059031000,8.097031005859375,-46.5,-57.88125228881836,-1.2937500476837158
1659026354069031000,8.107031005859374,-46.72500228881836,-58.53750228881836,-1.4625000953674316
1659026354079031000,8.117031005859374,-46.63125228881836,-58.95000076293945,-1.3875000476837158
1659026354089031000,8.127031005859376,-46.556251525878906,-59.13750076293945,-1.7437500953674316
1659026354099031000,8.137031005859376,-46.650001525878906,-59.70000076293945,-1.8750001192092896
1659026354109031000,8.147031005859375,-46.80000305175781,-60.07500076293945,-2.1000001430511475
1659026354119031000,8.157031005859375,-46.743751525878906,-60.431251525878906,-2.625
1659026354129031000,8.167031005859375,-46.368751525878906,-60.712501525878906,-2.7562501430511475
1659026354139031000,8.177031005859375,-46.25625228881836,-61.14375305175781,-3
1659026354149031000,8.187031005859374,-46.275001525878906,-61.53750228881836,-3.168750047683716
1659026354159031000,8.197031005859374,-46.35000228881836,-61.743751525878906,-3.4312500953674316
1659026354169031000,8.207031005859376,-46.29375076293945,-62.156253814697266,-3.5062501430511475
1659026354179031000,8.217031005859376,-46.06875228881836,-62.493751525878906,-3.637500047683716
1659026354189031000,8.227031005859375,-46.16250228881836,-62.79375076293945,-3.8812501430511475
1659026354199031000,8.237031005859375,-46.25625228881836,-63.20625305175781,-3.9562501907348633
1659026354209031000,8.247031005859375,-46.38750076293945,-63.712501525878906,-4.087500095367432
1659026354219031000,8.257031005859375,-46.5,-63.91875076293945,-4.350000381469727
1659026354229031000,8.267031005859375,-46.368751525878906,-64.14375305175781,-4.40625
1659026354239031000,8.277031005859374,-46.462501525878906,-64.5,-4.800000190734863
1659026354249031000,8.287031005859374,-46.368751525878906,-64.72500610351562,-4.950000286102295
1659026354259031000,8.297031005859376,-46.40625,-64.89375305175781,-5.325000286102295
1659026354269031000,8.307031005859375,-46.33125305175781,-65.28750610351562,-5.625
1659026354279031000,8.317031005859375,-46.3125,-65.45625305175781,-5.775000095367432
1659026354289031000,8.327031005859375,-46.63125228881836,-65.5875015258789,-6.225000381469727
1659026354299031000,8.337031005859375,-46.89375305175781,-66.07500457763672,-6.562500476837158
1659026354309031000,8.347031005859375,-47.0625,-66.35625457763672,-7.275000095367432
1659026354319031000,8.357031005859374,-47.10000228881836,-66.67500305175781,-7.743750095367432
1659026354329031000,8.367031005859374,-47.38125228881836,-66.97500610351562,-8.40000057220459
1659026354339031000,8.377031005859376,-47.55000305175781,-67.14375305175781,-8.71875
1659026354349031000,8.387031005859376,-47.64375305175781,-67.3687515258789,-9.1875
1659026354359031000,8.397031005859375,-47.775001525878906,-67.66875457763672,-9.90000057220459
1659026354369031000,8.407031005859375,-47.64375305175781,-67.78125,-10.443750381469727
1659026354379031000,8.417031005859375,-47.66250228881836,-67.875,-11.081250190734863
1659026354389031000,8.427031005859375,-47.60625076293945,-67.9312515258789,-11.268750190734863
1659026354399031000,8.437031005859374,-47.41875076293945,-68.04375457763672,-11.568750381469727
1659026354409031000,8.447031005859374,-47.41875076293945,-68.34375,-12.075000762939453
1659026354419031000,8.457031005859376,-47.56875228881836,-68.66250610351562,-12.862500190734863
1659026354429031000,8.467031005859376,-47.493751525878906,-68.70000457763672,-13.200000762939453
1659026354439031000,8.477031005859375,-47.681251525878906,-68.8687515258789,-13.481250762939453
1659026354449031000,8.487031005859375,-47.681251525878906,-69.03750610351562,-13.83750057220459
1659026354459031000,8.497031005859375,-47.681251525878906,-69.20625305175781,-14.287500381469727
1659026354469031000,8.507031005859375,-47.66250228881836,-69.6187515258789,-14.925000190734863
1659026354479031000,8.517031005859375,-47.38125228881836,-69.78750610351562,-15.33750057220459
1659026354489031000,8.527031005859374,-47.23125076293945,-69.69375610351562,-15.487500190734863
1659026354499031000,8.537031005859374,-47.00625228881836,-69.8062515258789,-15.52500057220459
1659026354509031000,8.547031005859376,-46.931251525878906,-69.9375,-15.99375057220459
1659026354519031000,8.557031005859375,-46.81875228881836,-70.16250610351562,-16.33125114440918
1659026354529031000,8.567031005859375,-46.875,-70.48125457763672,-16.61250114440918
1659026354539031000,8.577031005859375,-46.70625305175781,-70.40625,-16.668750762939453
1659026354549031000,8.587031005859375,-46.76250076293945,-70.2750015258789,-16.725000381469727
1659026354559031000,8.597031005859375,-47.32500076293945,-70.3687515258789,-17.0625
1659026354569031000,8.607031005859374,-47.51250076293945,-70.61250305175781,-17.512500762939453
1659026354579031000,8.617031005859374,-47.55000305175781,-70.80000305175781,-17.700000762939453
1659026354589031000,8.627031005859376,-47.79375076293945,-71.0250015258789,-17.793750762939453
1659026354599031000,8.637031005859376,-47.70000076293945,-71.08125305175781,-17.981250762939453
1659026354609031000,8.647031005859375,-47.75625228881836,-71.17500305175781,-18.168750762939453
1659026354619031000,8.657031005859375,-47.85000228881836,-71.53125,-18.48750114440918
1659026354629031000,8.667031005859375,-47.775001525878906,-72.09375,-18.825000762939453
1659026354639031000,8.677031005859375,-47.51250076293945,-72.1875,-19.068750381469727
1659026354649031000,8.687031005859374,-47.17500305175781,-72.22500610351562,-19.387500762939453
1659026354659031000,8.697031005859374,-46.91250228881836,-72.2437515258789,-19.98750114440918
1659026354669031000,8.707031005859376,-46.5,-72.6187515258789,-20.64375114440918
1659026354679031000,8.717031005859376,-46.556251525878906,-72.73125457763672,-21
1659026354689031000,8.727031005859375,-46.57500076293945,-72.82500457763672,-21.600000381469727
1659026354699031000,8.737031005859375,-46.51875305175781,-72.91875457763672,-22.012500762939453
1659026354709031000,8.747031005859375,-46.35000228881836,-72.84375,-22.42500114440918
1659026354719031000,8.757031005859375,-46.33125305175781,-73.10625457763672,-22.912500381469727
1659026354729031000,8.767031005859375,-46.61250305175781,-73.42500305175781,-23.118751525878906
1659026354739031000,8.777031005859374,-46.81875228881836,-73.63125610351562,-23.681251525878906
1659026354749031000,8.787031005859374,-46.85625076293945,-73.29375457763672,-23.8125
1659026354759031000,8.797031005859376,-46.72500228881836,-73.21875,-24.39375114440918
1659026354769031000,8.807031005859375,-46.81875228881836,-73.14375305175781,-24.712501525878906
1659026354779031000,8.817031005859375,-46.743751525878906,-73.0875015258789,-25.125001907348633
1659026354789031000,8.827031005859375,-46.96875,-72.9937515258789,-25.443750381469727
1659026354799031000,8.837031005859375,-46.96875,-72.91875457763672,-25.743751525878906
1659026354809031000,8.847031005859375,-46.85625076293945,-72.60000610351562,-26.343751907348633
1659026354819031000,8.857031005859374,-46.81875228881836,-72.50625610351562,-26.531251907348633
1659026354829031000,8.867031005859374,-46.89375305175781,-72.5250015258789,-27.11250114440918
1659026354839031000,8.877031005859376,-46.91250228881836,-72.46875,-27.450000762939453
1659026354849031000,8.887031005859376,-46.63125228881836,-72.63750457763672,-27.86250114440918
1659026354859031000,8.897031005859375,-46.70625305175781,-72.5250015258789,-28.575000762939453
1659026354869031000,8.907031005859375,-46.40625,-72.35625457763672,-29.36250114440918
1659026354879031000,8.917031005859375,-46.38750076293945,-72.0562515258789,-30.056251525878906
1659026354889031000,8.927031005859375,-46.38750076293945,-71.92500305175781,-30.543750762939453
1659026354899031000,8.937031005859374,-46.3125,-71.73750305175781,-31.05000114440918
1659026354909031000,8.947031005859374,-46.6875,-71.5875015258789,-31.387500762939453
1659026354919031000,8.957031005859376,-46.80000305175781,-71.51250457763672,-31.950000762939453
1659026354929031000,8.967031005859376,-46.98750305175781,-70.8375015258789,-32.53125
1659026354939031000,8.977031005859375,-47.00625228881836,-70.66875457763672,-32.85000228881836
1659026354949031000,8.987031005859375,-47.15625,-70.29375457763672,-33.13125228881836
1659026354959031000,8.997031005859375,-47.32500076293945,-69.9000015258789,-33.54375076293945
1659026354969031000,9.007031005859375,-47.55000305175781,-69.5250015258789,-34.20000076293945
1659026354979031000,9.017031005859375,-47.75625228881836,-68.83125305175781,-34.650001525878906
1659026354989031000,9.027031005859374,-47.45625305175781,-68.36250305175781,-35.212501525878906
1659026354999031000,9.037031005859374,-47.625,-67.81875610351562,-35.53125
1659026355009031000,9.047031005859376,-47.681251525878906,-67.35000610351562,-36
1659026355019031000,9.057031005859375,-47.51250076293945,-66.5250015258789,-36.525001525878906
1659026355029031000,9.067031005859375,-47.92500305175781,-65.8125,-37.125
1659026355039031000,9.077031005859375,-47.88750076293945,-65.32500457763672,-37.48125076293945
1659026355049031000,9.087031005859375,-47.8125,-64.80000305175781,-37.63125228881836
1659026355059031000,9.097031005859375,-47.868751525878906,-64.38750457763672,-38.118751525878906
1659026355069031000,9.107031005859374,-48.150001525878906,-63.750003814697266,-38.41875076293945
1659026355079031000,9.117031005859374,-48.07500076293945,-63.13125228881836,-38.8125
1659026355089031000,9.127031005859376,-48.243751525878906,-62.45625305175781,-38.962501525878906
1659026355099031000,9.137031005859376,-48.468753814697266,-61.968753814697266,-39.09375
1659026355109031000,9.147031005859375,-48.431251525878906,-61.462501525878906,-39.13125228881836
1659026355119031000,9.157031005859375,-48.88125228881836,-60.86250305175781,-39.375
1659026355129031000,9.167031005859375,-49.218753814697266,-60.26250076293945,-39.60000228881836
1659026355139031000,9.177031005859375,-49.63125228881836,-59.625003814697266,-39.39375305175781
1659026355149031000,9.187031005859374,-49.968753814697266,-59.062503814697266,-39.41250228881836
1659026355159031000,9.197031005859374,-50.28750228881836,-58.275001525878906,-39.20625305175781
1659026355169031000,9.207031005859376,-50.55000305175781,-57.750003814697266,-39.03750228881836
1659026355179031000,9.217031005859376,-51.150001525878906,-57.13125228881836,-38.75625228881836
1659026355189031000,9.227031005859375,-51.30000305175781,-56.70000076293945,-38.400001525878906
1659026355199031000,9.237031005859375,-51.26250076293945,-56.156253814697266,-37.81875228881836
1659026355209031000,9.247031005859375,-51.525001525878906,-55.48125076293945,-37.21875
1659026355219031000,9.257031005859375,-51.54375076293945,-54.993751525878906,-36.95625305175781
1659026355229031000,9.267031005859375,-51.63750076293945,-54.41250228881836,-36.1875
1659026355239031000,9.277031005859374,-51.78750228881836,-54.16875076293945,-35.70000076293945
1659026355249031000,9.287031005859374,-51.88125228881836,-53.812503814697266,-35.0625
1659026355259031000,9.297031005859376,-51.993751525878906,-53.343753814697266,-34.53750228881836
1659026355269031000,9.307031005859375,-52.01250076293945,-52.837501525878906,-33.97500228881836
1659026355279031000,9.317031005859375,-52.14375305175781,-52.687503814697266,-33.54375076293945
1659026355289031000,9.327031005859375,-52.20000076293945,-52.57500076293945,-33.16875076293945
1659026355299031000,9.337031005859375,-51.993751525878906,-52.44375228881836,-32.625
1659026355309031000,9.347031005859375,-51.97500228881836,-52.20000076293945,-32.51250076293945
1659026355319031000,9.357031005859374,-51.806251525878906,-51.82500076293945,-32.118751525878906
1659026355329031000,9.367031005859374,-51.656253814697266,-51.63750076293945,-31.875001907348633
1659026355339031000,9.377031005859376,-51.20625305175781,-51.88125228881836,-31.80000114440918
1659026355349031000,9.387031005859376,-51.20625305175781,-51.843753814697266,-31.575000762939453
1659026355359031000,9.397031005859375,-51.000003814697266,-51.806251525878906,-31.443750381469727
1659026355369031000,9.407031005859375,-50.681251525878906,-51.88125228881836,-31.23750114440918
1659026355379031000,9.417031005859375,-50.79375076293945,-51.900001525878906,-30.881250381469727
1659026355389031000,9.427031005859375,-50.625003814697266,-52.087501525878906,-30.67500114440918
1659026355399031000,9.437031005859374,-50.493751525878906,-52.462501525878906,-30.431251525878906
1659026355409031000,9.447031005859374,-50.36250305175781,-52.687503814697266,-30.375001907348633
1659026355419031000,9.457031005859376,-50.32500076293945,-52.72500228881836,-30.150001525878906
1659026355429031000,9.467031005859376,-50.156253814697266,-53.04375076293945,-30.30000114440918
1659026355439031000,9.477031005859375,-49.91250228881836,-53.08125305175781,-30.131250381469727
1659026355449031000,9.487031005859375,-49.63125228881836,-53.08125305175781,-30.037500381469727
1659026355459031000,9.497031005859375,-49.29375076293945,-53.250003814697266,-30.131250381469727
1659026355469031000,9.507031005859375,-48.937503814697266,-53.36250305175781,-30.150001525878906
1659026355479031000,9.517031005859375,-48.69375228881836,-53.28750228881836,-30.262500762939453
1659026355489031000,9.527031005859374,-48.337501525878906,-53.26875305175781,-30.58125114440918
1659026355499031000,9.537031005859374,-48.07500076293945,-53.437503814697266,-30.656251907348633
1659026355509031000,9.547031005859376,-47.868751525878906,-53.437503814697266,-30.48750114440918
1659026355519031000,9.557031005859375,-47.79375076293945,-53.45625305175781,-30.600000381469727
1659026355529031000,9.567031005859375,-47.79375076293945,-53.38125228881836,-30.76875114440918
1659026355539031000,9.577031005859375,-47.79375076293945,-53.28750228881836,-30.693750381469727
1659026355549031000,9.587031005859375,-47.83125305175781,-53.212501525878906,-30.937501907348633
1659026355559031000,9.597031005859375,-47.60625076293945,-53.23125076293945,-31.200000762939453
1659026355569031000,9.607031005859374,-47.66250228881836,-53.38125228881836,-31.012500762939453
1659026355579031000,9.617031005859374,-47.55000305175781,-53.19375228881836,-30.95625114440918
1659026355589031000,9.627031005859376,-47.36250305175781,-53.10000228881836,-31.293750762939453
1659026355599031000,9.637031005859376,-47.212501525878906,-52.98750305175781,-31.500001907348633
1659026355609031000,9.647031005859375,-47.212501525878906,-52.98750305175781,-31.687501907348633
1659026355619031000,9.657031005859375,-47.04375076293945,-53.10000228881836,-31.98750114440918
1659026355629031000,9.667031005859375,-46.91250228881836,-53.00625228881836,-31.950000762939453
1659026355639031000,9.677031005859375,-47.17500305175781,-52.968753814697266,-32.0625
1659026355649031000,9.687031005859374,-46.98750305175781,-52.72500228881836,-32.26875305175781
1659026355659031000,9.697031005859374,-47.04375076293945,-52.35000228881836,-32.34375
1659026355669031000,9.707031005859376,-47.32500076293945,-52.181251525878906,-32.13750076293945
1659026355679031000,9.717031005859376,-47.60625076293945,-51.806251525878906,-32.10000228881836
1659026355689031000,9.727031005859375,-47.493751525878906,-51.468753814697266,-32.00625228881836
1659026355699031000,9.737031005859375,-47.75625228881836,-50.906253814697266,-32.0625
1659026355709031000,9.747031005859375,-48.01875305175781,-50.64375305175781,-32.08125305175781
1659026355719031000,9.757031005859375,-48.01875305175781,-50.343753814697266,-32.10000228881836
1659026355729031000,9.767031005859375,-48.26250076293945,-49.95000076293945,-32.0625
1659026355739031000,9.777031005859374,-48.11250305175781,-49.76250076293945,-32.025001525878906
1659026355749031000,9.787031005859374,-48.26250076293945,-49.462501525878906,-32.08125305175781
1659026355759031000,9.797031005859376,-48.39375305175781,-49.06875228881836,-32.118751525878906
1659026355769031000,9.807031005859375,-48.73125076293945,-48.91875076293945,-32.025001525878906
1659026355779031000,9.817031005859375,-48.73125076293945,-48.63750076293945,-31.98750114440918
1659026355789031000,9.827031005859375,-48.76875305175781,-48.58125305175781,-32.13750076293945
1659026355799031000,9.837031005859375,-48.91875076293945,-48.243751525878906,-31.98750114440918
1659026355809031000,9.847031005859375,-49.14375305175781,-48.13125228881836,-31.687501907348633
1659026355819031000,9.857031005859374,-49.51875305175781,-47.94375228881836,-31.462501525878906
1659026355829031000,9.867031005859374,-49.76250076293945,-47.70000076293945,-31.33125114440918
1659026355839031000,9.877031005859376,-49.53750228881836,-47.73750305175781,-30.937501907348633
1659026355849031000,9.887031005859376,-49.687503814697266,-47.4375,-30.637500762939453
1659026355859031000,9.897031005859375,-50.062503814697266,-47.08125305175781,-30.187501907348633
1659026355869031000,9.907031005859375,-50.250003814697266,-46.76250076293945,-29.587501525878906
1659026355879031000,9.917031005859375,-50.38125228881836,-46.42500305175781,-29.118751525878906
1659026355889031000,9.927031005859375,-50.73750305175781,-46.05000305175781,-28.70625114440918
1659026355899031000,9.937031005859374,-51.16875076293945,-45.75,-28.481250762939453
1659026355909031000,9.947031005859374,-51.35625076293945,-45.54375076293945,-27.95625114440918
1659026355919031000,9.957031005859376,-51.95625305175781,-45.375,-27.48750114440918
1659026355929031000,9.967031005859376,-52.031253814697266,-45.30000305175781,-27.075000762939453
1659026355939031000,9.977031005859375,-52.38750076293945,-45.35625076293945,-26.887500762939453
1659026355949031000,9.987031005859375,-52.57500076293945,-45.09375,-26.625001907348633
1659026355959031000,9.997031005859375,-52.89375305175781,-45.11250305175781,-26.36250114440918
1659026355969031000,10.007031005859375,-52.98750305175781,-45.26250076293945,-26.343751907348633
1659026355979031000,10.017031005859375,-52.95000076293945,-45.58125305175781,-26.212501525878906
1659026355989031000,10.027031005859374,-53.17500305175781,-45.39375305175781,-26.17500114440918
1659026355999031000,10.037031005859374,-53.28750228881836,-45.30000305175781,-26.306251525878906
1659026356009031000,10.047031005859376,-53.306251525878906,-45.150001525878906,-26.306251525878906
1659026356019031000,10.057031005859375,-53.156253814697266,-44.868751525878906,-26.250001907348633
1659026356029031000,10.067031005859375,-53.23125076293945,-44.73750305175781,-26.306251525878906
1659026356039031000,10.077031005859375,-53.156253814697266,-44.66250228881836,-26.17500114440918
1659026356049031000,10.087031005859375,-53.10000228881836,-44.56875228881836,-26.100000381469727
1659026356059031000,10.097031005859375,-52.91250228881836,-44.4375,-26.043750762939453
1659026356069031000,10.107031005859374,-52.781253814697266,-44.56875228881836,-26.100000381469727
1659026356079031000,10.117031005859374,-52.593753814697266,-44.55000305175781,-26.025001525878906
1659026356089031000,10.127031005859376,-52.650001525878906,-44.625,-25.931251525878906
1659026356099031000,10.137031005859376,-52.48125076293945,-44.71875,-25.80000114440918
1659026356109031000,10.147031005859375,-52.312503814697266,-44.868751525878906,-25.575000762939453
1659026356119031000,10.157031005859375,-52.38750076293945,-44.66250228881836,-25.687501907348633
1659026356129031000,10.167031005859375,-52.44375228881836,-44.775001525878906,-25.80000114440918
1659026356139031000,10.177031005859375,-52.61250305175781,-44.60625076293945,-25.70625114440918
1659026356149031000,10.187031005859374,-52.35000228881836,-44.55000305175781,-25.575000762939453
1659026356159031000,10.197031005859374,-52.462501525878906,-44.60625076293945,-25.556251525878906
1659026356169031000,10.207031005859376,-52.35000228881836,-44.625,-25.481250762939453
1659026356179031000,10.217031005859376,-52.406253814697266,-44.64375305175781,-25.51875114440918
1659026356189031000,10.227031005859375,-52.51875305175781,-44.60625076293945,-25.406251907348633
1659026356199031000,10.237031005859375,-52.462501525878906,-44.88750076293945,-25.068750381469727
1659026356209031000,10.247031005859375,-52.368751525878906,-44.70000076293945,-24.693750381469727
1659026356219031000,10.257031005859375,-52.53750228881836,-44.8125,-24.618751525878906
1659026356229031000,10.267031005859375,-52.650001525878906,-44.587501525878906,-24.262500762939453
1659026356239031000,10.277031005859374,-52.368751525878906,-44.45625305175781,-23.90625
1659026356249031000,10.287031005859374,-52.38750076293945,-44.4375,-23.64375114440918
1659026356259031000,10.297031005859376,-52.500003814697266,-44.4375,-23.55000114440918
1659026356269031000,10.307031005859375,-52.53750228881836,-44.51250076293945,-23.53125
1659026356279031000,10.317031005859375,-52.687503814697266,-44.4375,-23.4375
1659026356289031000,10.327031005859375,-52.687503814697266,-44.66250228881836,-23.325000762939453
1659026356299031000,10.337031005859375,-52.462501525878906,-44.41875076293945,-23.15625
1659026356309031000,10.347031005859375,-52.33125305175781,-44.71875,-23.025001525878906
1659026356319031000,10.357031005859374,-52.406253814697266,-44.868751525878906,-22.837501525878906
1659026356329031000,10.367031005859374,-52.63125228881836,-44.88750076293945,-22.912500381469727
1659026356339031000,10.377031005859376,-52.593753814697266,-45.09375,-22.42500114440918
1659026356349031000,10.387031005859376,-52.61250305175781,-45.31875228881836,-22.275001525878906
1659026356359031000,10.397031005859375,-52.51875305175781,-45.375,-22.14375114440918
1659026356369031000,10.407031005859375,-52.556251525878906,-45.26250076293945,-22.162500381469727
1659026356379031000,10.417031005859375,-52.76250076293945,-45.5625,-22.012500762939453
1659026356389031000,10.427031005859375,-52.743751525878906,-45.63750076293945,-22.293750762939453
1659026356399031000,10.437031005859374,-52.85625076293945,-45.431251525878906,-22.368751525878906
1659026356409031000,10.447031005859374,-52.57500076293945,-45.48750305175781,-22.275001525878906
1659026356419031000,10.457031005859376,-52.25625228881836,-45.35625076293945,-22.481250762939453
1659026356429031000,10.467031005859376,-52.33125305175781,-45.07500076293945,-22.481250762939453
1659026356439031000,10.477031005859375,-52.33125305175781,-44.98125076293945,-22.6875
1659026356449031000,10.487031005859375,-52.38750076293945,-44.962501525878906,-22.556251525878906
1659026356459031000,10.497031005859375,-52.20000076293945,-44.85000228881836,-22.537500381469727
1659026356469031000,10.507031005859375,-52.33125305175781,-44.83125305175781,-22.350000381469727
1659026356479031000,10.517031005859375,-52.33125305175781,-45.03750228881836,-22.21875
1659026356489031000,10.527031005859374,-52.48125076293945,-45.20625305175781,-22.012500762939453
1659026356499031000,10.537031005859374,-52.91250228881836,-45.22500228881836,-21.86250114440918
1659026356509031000,10.547031005859376,-52.53750228881836,-45.30000305175781,-21.825000762939453
1659026356519031000,10.557031005859375,-52.38750076293945,-45.243751525878906,-21.65625
1659026356529031000,10.567031005859375,-52.23750305175781,-45.46875,-21.806251525878906
1659026356539031000,10.577031005859375,-52.29375076293945,-45.58125305175781,-21.75
1659026356549031000,10.587031005859375,-52.29375076293945,-45.46875,-21.787500381469727
1659026356559031000,10.597031005859375,-52.500003814697266,-45.60000228881836,-22.106250762939453
1659026356569031000,10.607031005859374,-52.44375228881836,-45.46875,-22.443750381469727
1659026356579031000,10.617031005859374,-52.23750305175781,-45.45000076293945,-22.5
1659026356589031000,10.627031005859376,-52.53750228881836,-45.28125,-22.556251525878906
1659026356599031000,10.637031005859376,-52.72500228881836,-45.48750305175781,-22.61250114440918
1659026356609031000,10.647031005859375,-52.593753814697266,-45.16875076293945,-22.70625114440918
1659026356619031000,10.657031005859375,-52.53750228881836,-45.26250076293945,-22.856250762939453
1659026356629031000,10.667031005859375,-52.44375228881836,-45.46875,-23.137500762939453
1659026356639031000,10.677031005859375,-52.312503814697266,-45.337501525878906,-22.931251525878906
1659026356649031000,10.687031005859374,-52.33125305175781,-45.431251525878906,-22.80000114440918
1659026356659031000,10.697031005859374,-52.218753814697266,-45.60000228881836,-23.118751525878906
1659026356669031000,10.707031005859376,-52.087501525878906,-45.69375228881836,-23.118751525878906
1659026356679031000,10.717031005859376,-51.91875076293945,-45.84375,-23.231250762939453
1659026356689031000,10.727031005859375,-52.06875228881836,-46.14375305175781,-23.118751525878906
1659026356699031000,10.737031005859375,-51.843753814697266,-45.97500228881836,-22.931251525878906
1659026356709031000,10.747031005859375,-52.16250228881836,-45.900001525878906,-22.743751525878906
1659026356719031000,10.757031005859375,-52.125003814697266,-46.06875228881836,-22.856250762939453
1659026356729031000,10.767031005859375,-52.275001525878906,-45.91875076293945,-22.931251525878906
1659026356739031000,10.777031005859374,-52.51875305175781,-45.993751525878906,-22.78125
1659026356749031000,10.787031005859374,-52.500003814697266,-46.06875228881836,-22.856250762939453
1659026356759031000,10.797031005859376,-52.500003814697266,-45.78750228881836,-22.70625114440918
1659026356769031000,10.807031005859375,-52.57500076293945,-45.84375,-22.743751525878906
1659026356779031000,10.817031005859375,-52.650001525878906,-46.05000305175781,-22.950000762939453
1659026356789031000,10.827031005859375,-52.76250076293945,-46.125,-22.875
1659026356799031000,10.837031005859375,-52.931251525878906,-45.95625305175781,-22.837501525878906
1659026356809031000,10.847031005859375,-52.81875228881836,-46.06875228881836,-22.98750114440918
1659026356819031000,10.857031005859374,-52.76250076293945,-45.84375,-22.89375114440918
1659026356829031000,10.867031005859374,-52.89375305175781,-45.900001525878906,-22.875
1659026356839031000,10.877031005859376,-52.968753814697266,-45.88125228881836,-22.89375114440918
1659026356849031000,10.887031005859376,-52.70625305175781,-45.67500305175781,-22.668750762939453
1659026356859031000,10.897031005859375,-52.81875228881836,-45.50625228881836,-22.42500114440918
1659026356869031000,10.907031005859375,-52.57500076293945,-45.48750305175781,-22.59375
1659026356879031000,10.917031005859375,-52.35000228881836,-45.5625,-22.6875
1659026356889031000,10.927031005859375,-52.29375076293945,-45.5625,-22.631250381469727
1659026356899031000,10.937031005859374,-52.06875228881836,-45.65625,-22.556251525878906
1659026356909031000,10.947031005859374,-51.82500076293945,-45.50625228881836,-22.387500762939453
1659026356919031000,10.957031005859376,-51.76875305175781,-45.75,-22.462501525878906
1659026356929031000,10.967031005859376,-51.712501525878906,-45.76875305175781,-22.51875114440918
1659026356939031000,10.977031005859375,-51.76875305175781,-45.86250305175781,-22.481250762939453
1659026356949031000,10.987031005859375,-51.67500305175781,-45.88125228881836,-22.293750762939453
1659026356959031000,10.997031005859375,-51.69375228881836,-45.9375,-21.975000381469727
1659026356969031000,11.007031005859375,-51.88125228881836,-45.97500228881836,-21.712501525878906
1659026356979031000,11.017031005859375,-51.95625305175781,-45.9375,-21.693750381469727
1659026356989031000,11.027031005859374,-51.806251525878906,-46.275001525878906,-21.412500381469727
1659026356999031000,11.037031005859374,-51.73125076293945,-46.33125305175781,-20.92500114440918
1659026357009031000,11.047031005859376,-51.86250305175781,-46.38750076293945,-20.287500381469727
1659026357019031000,11.057031005859375,-51.78750228881836,-46.57500076293945,-19.98750114440918
1659026357029031000,11.067031005859375,-51.82500076293945,-46.72500228881836,-19.5
1659026357039031000,11.077031005859375,-51.750003814697266,-46.80000305175781,-19.256250381469727
1659026357049031000,11.087031005859375,-51.525001525878906,-46.78125,-18.75
1659026357059031000,11.097031005859375,-51.656253814697266,-46.95000076293945,-18.337501525878906
1659026357069031000,11.107031005859374,-52.29375076293945,-46.72500228881836,-18.337501525878906
1659026357079031000,11.117031005859374,-52.500003814697266,-46.42500305175781,-18.262500762939453
1659026357089031000,11.127031005859376,-52.743751525878906,-46.23750305175781,-18.506250381469727
