time,seconds_elapsed,z,y,x
1659026346029032400,0.067032470703125,-271.3500061035156,1119.97509765625,67.35000610351562
1659026346039032600,0.077032470703125,-271.6312561035156,1121.1375732421875,66.8062515258789
1659026346049032400,0.087032470703125,-271.6875,1121.4188232421875,67.7437515258789
1659026346059032600,0.097032470703125,-270.9000244140625,1120.987548828125,67.61250305175781
1659026346069032400,0.107032470703125,-270.9937744140625,1120.9500732421875,67.72500610351562
1659026346079032600,0.117032470703125,-271.20001220703125,1120.875,67.57500457763672
1659026346089032400,0.127032470703125,-271.3500061035156,1120.800048828125,67.59375
1659026346099032600,0.137032470703125,-271.21875,1120.875,67.63125610351562
1659026346109032400,0.147032470703125,-271.1437683105469,1121.175048828125,67.66875457763672
1659026346119032600,0.157032470703125,-271.03125,1120.8563232421875,67.80000305175781
1659026346129032400,0.167032470703125,-270.8062744140625,1120.7625732421875,67.59375
1659026346139032600,0.177032470703125,-271.0500183105469,1120.893798828125,67.57500457763672
1659026346149032400,0.187032470703125,-271.0500183105469,1121.0625,67.53750610351562
1659026346159032600,0.197032470703125,-270.82501220703125,1121.15625,67.6875
1659026346169032400,0.207032470703125,-270.63751220703125,1121.362548828125,67.7437515258789
1659026346179032600,0.217032470703125,-270.63751220703125,1121.4188232421875,67.78125
1659026346189032400,0.227032470703125,-270.63751220703125,1121.38134765625,67.72500610351562
1659026346199032600,0.237032470703125,-270.65625,1121.456298828125,67.7437515258789
1659026346209032400,0.247032470703125,-270.4312744140625,1121.53125,67.85625457763672
1659026346219032600,0.257032470703125,-270.6000061035156,1121.53125,67.85625457763672
1659026346229032400,0.267032470703125,-270.5625,1121.4188232421875,67.89375305175781
1659026346239032600,0.277032470703125,-270.6937561035156,1121.38134765625,67.8375015258789
1659026346249032400,0.287032470703125,-270.8625183105469,1121.175048828125,67.66875457763672
1659026346259032600,0.297032470703125,-271.01251220703125,1121.0250244140625,67.76250457763672
1659026346269032400,0.307032470703125,-270.9750061035156,1120.7437744140625,67.875
1659026346279032600,0.317032470703125,-270.9375,1120.8563232421875,67.7437515258789
1659026346289032400,0.327032470703125,-271.10626220703125,1120.7437744140625,67.57500457763672
1659026346299032600,0.337032470703125,-271.03125,1120.78125,67.57500457763672
1659026346309032400,0.347032470703125,-270.9937744140625,1120.91259765625,67.51875305175781
1659026346319032600,0.357032470703125,-270.7875061035156,1121.0250244140625,67.5
1659026346329032400,0.367032470703125,-270.6187744140625,1121.0438232421875,67.76250457763672
1659026346339032600,0.377032470703125,-270.54376220703125,1121.0438232421875,67.72500610351562
1659026346349032400,0.387032470703125,-270.9562683105469,1121.2125244140625,67.66875457763672
1659026346359032600,0.397032470703125,-270.9937744140625,1121.2313232421875,67.875
1659026346369032400,0.407032470703125,-271.20001220703125,1121.15625,68.04375457763672
1659026346379032600,0.417032470703125,-271.2750244140625,1121.1187744140625,68.17500305175781
1659026346389032400,0.427032470703125,-271.4437561035156,1121.0250244140625,68.19375610351562
1659026346399032600,0.437032470703125,-271.5,1121.0625,68.19375610351562
1659026346409032400,0.447032470703125,-271.4250183105469,1121.0438232421875,67.91250610351562
1659026346419032600,0.457032470703125,-271.38751220703125,1121.34375,67.95000457763672
1659026346429032400,0.467032470703125,-271.03125,1121.2125244140625,67.9312515258789
1659026346439032600,0.477032470703125,-271.0500183105469,1121.2313232421875,67.91250610351562
1659026346449032400,0.487032470703125,-271.0500183105469,1121.38134765625,67.61250305175781
1659026346459032600,0.497032470703125,-270.9000244140625,1121.38134765625,67.66875457763672
1659026346469032400,0.507032470703125,-270.82501220703125,1121.2313232421875,67.72500610351562
1659026346479032600,0.517032470703125,-270.9000244140625,1121.2313232421875,67.89375305175781
1659026346489032400,0.527032470703125,-270.9937744140625,1121.2313232421875,67.96875
1659026346499032600,0.537032470703125,-270.9937744140625,1121.0438232421875,67.7437515258789
1659026346509032400,0.547032470703125,-270.91876220703125,1121.15625,67.85625457763672
1659026346519032600,0.557032470703125,-270.91876220703125,1121.0625,67.80000305175781
1659026346529032400,0.567032470703125,-270.63751220703125,1120.987548828125,67.95000457763672
1659026346539032600,0.577032470703125,-270.5250244140625,1120.9312744140625,67.875
1659026346549032400,0.587032470703125,-270.4875183105469,1121.0625,67.80000305175781
1659026346559032600,0.597032470703125,-270.3375244140625,1120.987548828125,67.57500457763672
1659026346569032400,0.607032470703125,-270.1875,1120.987548828125,67.5
1659026346579032600,0.617032470703125,-270.2250061035156,1121.0625,67.61250305175781
1659026346589032400,0.627032470703125,-270.16876220703125,1121.2313232421875,67.48125457763672
1659026346599032600,0.637032470703125,-269.90625,1121.25,67.4625015258789
1659026346609032400,0.647032470703125,-270.1125183105469,1121.175048828125,67.40625
1659026346619032600,0.657032470703125,-270.28125,1121.3250732421875,67.23750305175781
1659026346629032400,0.667032470703125,-270.28125,1121.28759765625,67.2750015258789
1659026346639032600,0.677032470703125,-270.4875183105469,1121.15625,67.25625610351562
1659026346649032400,0.687032470703125,-270.3187561035156,1121.2125244140625,67.44375610351562
1659026346659032600,0.697032470703125,-270.16876220703125,1120.987548828125,67.40625
1659026346669032400,0.707032470703125,-270.3375244140625,1120.6688232421875,67.35000610351562
1659026346679032600,0.717032470703125,-270.3375244140625,1120.612548828125,67.44375610351562
1659026346689032400,0.727032470703125,-270.2437744140625,1120.706298828125,67.44375610351562
1659026346699032600,0.737032470703125,-270.07501220703125,1120.5562744140625,67.51875305175781
1659026346709032400,0.747032470703125,-269.8687744140625,1120.5562744140625,67.5562515258789
1659026346719032600,0.757032470703125,-269.90625,1120.425048828125,67.6500015258789
1659026346729032400,0.767032470703125,-270.09375,1120.237548828125,67.5562515258789
1659026346739032600,0.777032470703125,-270.3187561035156,1120.5,67.59375
1659026346749032400,0.787032470703125,-270.1312561035156,1120.6688232421875,67.7437515258789
1659026346759032600,0.797032470703125,-270.3375244140625,1120.612548828125,67.70625305175781
1659026346769032400,0.807032470703125,-270.5812683105469,1120.5562744140625,67.66875457763672
1659026346779032600,0.817032470703125,-270.6750183105469,1120.6500244140625,67.66875457763672
1659026346789032400,0.827032470703125,-270.6187744140625,1120.6688232421875,67.5562515258789
1659026346799032600,0.837032470703125,-270.3937683105469,1120.800048828125,67.40625
1659026346809032400,0.847032470703125,-270.3187561035156,1120.9500732421875,67.40625
1659026346819032600,0.857032470703125,-270.1875,1120.5750732421875,67.20000457763672
1659026346829032400,0.867032470703125,-270.4125061035156,1120.5,67.01250457763672
1659026346839032600,0.877032470703125,-270.35626220703125,1120.63134765625,67.05000305175781
1659026346849032400,0.887032470703125,-270.2250061035156,1120.612548828125,67.21875
1659026346859032600,0.897032470703125,-270.0562744140625,1120.3875732421875,67.35000610351562
1659026346869032400,0.907032470703125,-270.3187561035156,1120.331298828125,67.33125305175781
1659026346879032600,0.917032470703125,-270.4312744140625,1120.25634765625,67.51875305175781
1659026346889032400,0.927032470703125,-270.4875183105469,1120.35009765625,67.51875305175781
1659026346899032600,0.937032470703125,-270.375,1120.44384765625,67.48125457763672
1659026346909032400,0.947032470703125,-270.16876220703125,1120.5,67.57500457763672
1659026346919032600,0.957032470703125,-270.1500244140625,1120.331298828125,67.40625
1659026346929032400,0.967032470703125,-270.1312561035156,1120.2938232421875,67.14375305175781
1659026346939032600,0.977032470703125,-270.3000183105469,1120.612548828125,67.14375305175781
1659026346949032400,0.987032470703125,-270.09375,1120.5562744140625,66.9375
1659026346959032600,0.997032470703125,-270.07501220703125,1120.6688232421875,66.91875457763672
1659026346969032400,1.007032470703125,-270.07501220703125,1120.63134765625,66.91875457763672
1659026346979032600,1.017032470703125,-270.0375061035156,1120.78125,67.14375305175781
1659026346989032400,1.027032470703125,-270.0562744140625,1120.875,67.05000305175781
1659026346999032600,1.037032470703125,-270.26251220703125,1121.0625,67.06875610351562
1659026347009032400,1.047032470703125,-270.1500244140625,1121.25,67.21875
1659026347019032600,1.057032470703125,-269.8500061035156,1121.1187744140625,66.9937515258789
1659026347029032400,1.067032470703125,-269.8312683105469,1120.9312744140625,67.0875015258789
1659026347039032600,1.077032470703125,-269.6437683105469,1121.00634765625,67.16250610351562
1659026347049032400,1.087032470703125,-269.70001220703125,1121.00634765625,67.06875610351562
1659026347059032600,1.097032470703125,-269.5875244140625,1121.0438232421875,66.97500610351562
1659026347069032400,1.107032470703125,-269.41876220703125,1120.8563232421875,67.1812515258789
1659026347079032600,1.117032470703125,-269.2687683105469,1120.96875,67.0875015258789
1659026347089032400,1.127032470703125,-269.41876220703125,1120.9500732421875,66.97500610351562
1659026347099032600,1.137032470703125,-269.5875244140625,1120.8375244140625,67.06875610351562
1659026347109032400,1.147032470703125,-269.6437683105469,1121.0625,67.23750305175781
1659026347119032600,1.157032470703125,-269.70001220703125,1120.9312744140625,67.05000305175781
1659026347129032400,1.167032470703125,-269.5875244140625,1120.91259765625,67.16250610351562
1659026347139032600,1.177032470703125,-269.79376220703125,1120.8563232421875,67.0875015258789
1659026347149032400,1.187032470703125,-270.0562744140625,1120.893798828125,66.97500610351562
1659026347159032600,1.197032470703125,-270.07501220703125,1120.7437744140625,67.06875610351562
1659026347169032400,1.207032470703125,-269.98126220703125,1120.706298828125,67.20000457763672
1659026347179032600,1.217032470703125,-269.9625244140625,1120.987548828125,67.23750305175781
1659026347189032400,1.227032470703125,-270.0187683105469,1121.0625,67.16250610351562
1659026347199032600,1.237032470703125,-270.1125183105469,1121.0625,67.10625457763672
1659026347209032400,1.247032470703125,-270.0187683105469,1121.00634765625,67.20000457763672
1659026347219032600,1.257032470703125,-269.90625,1121.1375732421875,67.35000610351562
1659026347229032400,1.267032470703125,-270.0375061035156,1121.081298828125,67.5
1659026347239032600,1.277032470703125,-269.9625244140625,1120.9312744140625,67.61250305175781
1659026347249032400,1.287032470703125,-269.90625,1120.81884765625,67.3687515258789
1659026347259032600,1.297032470703125,-269.8312683105469,1120.6688232421875,67.35000610351562
1659026347269032400,1.307032470703125,-269.71875,1120.5562744140625,67.2750015258789
1659026347279032600,1.317032470703125,-269.88751220703125,1120.518798828125,67.33125305175781
1659026347289032400,1.327032470703125,-269.8687744140625,1120.72509765625,67.25625610351562
1659026347299032600,1.337032470703125,-269.7750244140625,1120.40625,67.10625457763672
1659026347309032400,1.347032470703125,-269.5687561035156,1120.425048828125,66.95625305175781
1659026347319032600,1.357032470703125,-269.70001220703125,1120.6500244140625,66.84375
1659026347329032400,1.367032470703125,-269.8500061035156,1120.6500244140625,67.05000305175781
1659026347339032600,1.377032470703125,-270.0562744140625,1120.5562744140625,67.06875610351562
1659026347349032400,1.387032470703125,-270.1125183105469,1120.5,67.06875610351562
1659026347359032600,1.397032470703125,-270.0375061035156,1120.81884765625,67.16250610351562
1659026347369032400,1.407032470703125,-270.28125,1120.4813232421875,67.14375305175781
1659026347379032600,1.417032470703125,-270.4875183105469,1120.4625244140625,67.1812515258789
1659026347389032400,1.427032470703125,-270.5812683105469,1120.3687744140625,67.20000457763672
1659026347399032600,1.437032470703125,-270.3187561035156,1120.3687744140625,67.35000610351562
1659026347409032400,1.447032470703125,-270.2062683105469,1120.35009765625,67.61250305175781
1659026347419032600,1.457032470703125,-270.1875,1120.3687744140625,67.53750610351562
1659026347429032400,1.467032470703125,-270.4312744140625,1120.5750732421875,67.61250305175781
1659026347439032600,1.477032470703125,-270.45001220703125,1120.35009765625,67.4625015258789
1659026347449032400,1.487032470703125,-270.5250244140625,1120.7437744140625,67.21875
1659026347459032600,1.497032470703125,-270.6187744140625,1120.96875,67.1812515258789
1659026347469032400,1.507032470703125,-270.63751220703125,1121.0625,67.01250457763672
1659026347479032600,1.517032470703125,-270.5625,1121.00634765625,66.95625305175781
1659026347489032400,1.527032470703125,-270.63751220703125,1120.987548828125,66.75
1659026347499032600,1.537032470703125,-270.54376220703125,1121.175048828125,66.8062515258789
1659026347509032400,1.547032470703125,-270.2062683105469,1121.1187744140625,67.01250457763672
1659026347519032600,1.557032470703125,-269.98126220703125,1121.0438232421875,67.1812515258789
1659026347529032400,1.567032470703125,-269.98126220703125,1120.893798828125,67.2750015258789
1659026347539032600,1.577032470703125,-269.90625,1120.875,67.2750015258789
1659026347549032400,1.587032470703125,-269.8312683105469,1120.987548828125,67.38750457763672
1659026347559032600,1.597032470703125,-269.9437561035156,1120.987548828125,67.33125305175781
1659026347569032400,1.607032470703125,-269.71875,1120.987548828125,67.29375457763672
1659026347579032600,1.617032470703125,-270,1120.893798828125,67.42500305175781
1659026347589032400,1.627032470703125,-270.2250061035156,1120.893798828125,67.01250457763672
1659026347599032600,1.637032470703125,-270.3937683105469,1120.91259765625,66.8062515258789
1659026347609032400,1.647032470703125,-270.35626220703125,1120.8375244140625,66.82500457763672
1659026347619032600,1.657032470703125,-270.4875183105469,1120.81884765625,66.8062515258789
1659026347629032400,1.667032470703125,-270.3937683105469,1120.875,66.67500305175781
1659026347639032600,1.677032470703125,-270.6187744140625,1120.63134765625,66.54375457763672
1659026347649032400,1.687032470703125,-270.82501220703125,1120.893798828125,66.5250015258789
1659026347659032600,1.697032470703125,-270.6187744140625,1120.8563232421875,66.39375305175781
1659026347669032400,1.707032470703125,-270.5812683105469,1120.8563232421875,66.48750305175781
1659026347679032600,1.717032470703125,-270.46875,1120.893798828125,66.69375610351562
1659026347689032400,1.727032470703125,-270.375,1120.9312744140625,66.9375
1659026347699032600,1.737032470703125,-270.1125183105469,1121.1375732421875,67.21875
1659026347709032400,1.747032470703125,-270.2062683105469,1120.8563232421875,67.5
1659026347719032600,1.757032470703125,-269.7562561035156,1121.15625,67.5562515258789
1659026347729032400,1.767032470703125,-269.6625061035156,1120.893798828125,67.51875305175781
1659026347739032600,1.777032470703125,-269.70001220703125,1120.800048828125,67.53750610351562
1659026347749032400,1.787032470703125,-269.4000244140625,1120.8375244140625,67.53750610351562
1659026347759032600,1.797032470703125,-269.3812561035156,1120.875,67.44375610351562
1659026347769032400,1.807032470703125,-269.2125244140625,1120.893798828125,67.25625610351562
1659026347779032600,1.817032470703125,-269.4000244140625,1120.81884765625,67.29375457763672
1659026347789032400,1.827032470703125,-269.34375,1121.0250244140625,67.16250610351562
1659026347799032600,1.837032470703125,-269.5687561035156,1120.8375244140625,67.125
1659026347809032400,1.847032470703125,-269.71875,1121.1187744140625,67.03125
1659026347819032600,1.857032470703125,-269.7750244140625,1121.1187744140625,66.9000015258789
1659026347829032400,1.867032470703125,-270.1125183105469,1121.0438232421875,67.01250457763672
1659026347839032600,1.877032470703125,-270.1875,1121.1187744140625,66.9000015258789
1659026347849032400,1.887032470703125,-270.6937561035156,1121.2313232421875,66.73125457763672
1659026347859032600,1.897032470703125,-270.6937561035156,1121.47509765625,66.63750457763672
1659026347869032400,1.907032470703125,-270.9562683105469,1121.34375,66.5250015258789
1659026347879032600,1.917032470703125,-271.2562561035156,1121.625,66.54375457763672
1659026347889032400,1.927032470703125,-271.21875,1121.625,66.7125015258789
1659026347899032600,1.937032470703125,-271.29376220703125,1121.8875732421875,66.8062515258789
1659026347909032400,1.947032470703125,-271.40625,1122.13134765625,66.7125015258789
1659026347919032600,1.957032470703125,-271.40625,1122.300048828125,66.78750610351562
1659026347929032400,1.967032470703125,-271.20001220703125,1122.46875,66.76875305175781
1659026347939032600,1.977032470703125,-271.0875244140625,1122.300048828125,66.4312515258789
1659026347949032400,1.987032470703125,-270.9000244140625,1122.487548828125,66.26250457763672
1659026347959032600,1.997032470703125,-270.6750183105469,1122.375,66.28125
1659026347969032400,2.007032470703125,-270.6750183105469,1122.3375244140625,65.9625015258789
1659026347979032600,2.017032470703125,-270.6000061035156,1122.4312744140625,65.98125457763672
1659026347989032400,2.027032470703125,-270.5250244140625,1122.22509765625,65.71875
1659026347999032600,2.037032470703125,-270.5250244140625,1122.09375,65.5875015258789
1659026348009032400,2.047032470703125,-270.5062561035156,1122.03759765625,65.4375
1659026348019032600,2.057032470703125,-270.63751220703125,1121.8687744140625,65.4375
1659026348029032400,2.067032470703125,-270.65625,1122.018798828125,65.45625305175781
1659026348039032600,2.077032470703125,-270.6937561035156,1121.9813232421875,65.36250305175781
1659026348049032400,2.087032470703125,-270.6000061035156,1122.112548828125,65.36250305175781
1659026348059032600,2.097032470703125,-270.4875183105469,1121.90625,65.0250015258789
1659026348069032400,2.107032470703125,-270.2250061035156,1122,64.98750305175781
1659026348079032600,2.117032470703125,-270.16876220703125,1122.03759765625,64.6500015258789
1659026348089032400,2.127032470703125,-269.9625244140625,1121.94384765625,64.35000610351562
1659026348099032600,2.137032470703125,-269.51251220703125,1121.71875,63.76875305175781
1659026348109032400,2.147032470703125,-269.2875061035156,1121.4375,63.22500228881836
1659026348119032600,2.157032470703125,-268.96875,1121.53125,62.51250076293945
1659026348129032400,2.167032470703125,-268.78125,1121.25,61.80000305175781
1659026348139032600,2.177032470703125,-268.3687744140625,1121.081298828125,61.06875228881836
1659026348149032400,2.187032470703125,-267.9750061035156,1120.987548828125,60.58125305175781
1659026348159032600,2.197032470703125,-267.5812683105469,1120.81884765625,59.98125076293945
1659026348169032400,2.207032470703125,-267.2250061035156,1120.59375,59.56875228881836
1659026348179032600,2.217032470703125,-267.16876220703125,1120.7625732421875,59.23125076293945
1659026348189032400,2.227032470703125,-266.8500061035156,1120.706298828125,58.781253814697266
1659026348199032600,2.237032470703125,-266.7750244140625,1120.4813232421875,58.650001525878906
1659026348209032400,2.247032470703125,-266.53125,1120.4625244140625,58.57500076293945
1659026348219032600,2.257032470703125,-266.4375,1120.53759765625,58.368751525878906
1659026348229032400,2.267032470703125,-266.3062744140625,1120.44384765625,57.97500228881836
1659026348239032600,2.277032470703125,-266.0812683105469,1120.6688232421875,57.73125076293945
1659026348249032400,2.287032470703125,-265.8187561035156,1120.7625732421875,57.468753814697266
1659026348259032600,2.297032470703125,-265.40625,1120.6875,57.30000305175781
1659026348269032400,2.307032470703125,-265.2375183105469,1120.706298828125,57.31875228881836
1659026348279032600,2.317032470703125,-264.7687683105469,1120.6688232421875,57.000003814697266
1659026348289032400,2.327032470703125,-264.6187744140625,1120.4625244140625,56.88750076293945
1659026348299032600,2.337032470703125,-264.4875183105469,1120.237548828125,57.01875305175781
1659026348309032400,2.347032470703125,-264.46875,1119.88134765625,57.187503814697266
1659026348319032600,2.357032470703125,-264.63751220703125,1119.112548828125,57.73125076293945
1659026348329032400,2.367032470703125,-264.9375,1118.643798828125,58.38750076293945
1659026348339032600,2.377032470703125,-265.3312683105469,1118.2313232421875,58.968753814697266
1659026348349032400,2.387032470703125,-265.57501220703125,1117.7437744140625,59.64375305175781
1659026348359032600,2.397032470703125,-265.8937683105469,1117.4813232421875,60.48750305175781
1659026348369032400,2.407032470703125,-266.23126220703125,1117.25634765625,61.23750305175781
1659026348379032600,2.417032470703125,-266.32501220703125,1116.7125244140625,62.062503814697266
1659026348389032400,2.427032470703125,-266.71875,1116.375,63.150001525878906
1659026348399032600,2.437032470703125,-267.0187683105469,1115.90625,64.03125
1659026348409032400,2.447032470703125,-267.2062683105469,1115.456298828125,64.8375015258789
1659026348419032600,2.457032470703125,-267.4312744140625,1114.96875,65.73750305175781
1659026348429032400,2.467032470703125,-267.4875183105469,1114.425048828125,66.58125305175781
1659026348439032600,2.477032470703125,-267.5625,1113.75,67.72500610351562
1659026348449032400,2.487032470703125,-267.5062561035156,1113.0750732421875,68.90625
1659026348459032600,2.497032470703125,-267.65625,1112.47509765625,69.9375
1659026348469032400,2.507032470703125,-267.54376220703125,1111.7437744140625,70.8375015258789
1659026348479032600,2.517032470703125,-267.2437744140625,1111.40625,71.8125
1659026348489032400,2.527032470703125,-267.0562744140625,1110.6375732421875,72.86250305175781
1659026348499032600,2.537032470703125,-266.71875,1110.09375,73.95000457763672
1659026348509032400,2.547032470703125,-266.4750061035156,1109.4375,75.01875305175781
1659026348519032600,2.557032470703125,-266.3062744140625,1108.7625732421875,75.97500610351562
1659026348529032400,2.567032470703125,-266.2687683105469,1108.03125,76.59375
1659026348539032600,2.577032470703125,-266.13751220703125,1107.88134765625,77.45625305175781
1659026348549032400,2.587032470703125,-266.15625,1107.6375732421875,78.0562515258789
1659026348559032600,2.597032470703125,-266.1000061035156,1107.4500732421875,78.6187515258789
1659026348569032400,2.607032470703125,-265.9875183105469,1107.69384765625,79.01250457763672
1659026348579032600,2.617032470703125,-266.23126220703125,1107.65625,79.21875
1659026348589032400,2.627032470703125,-266.5500183105469,1107.9937744140625,79.5
1659026348599032600,2.637032470703125,-267,1108.53759765625,79.3687515258789
1659026348609032400,2.647032470703125,-267.16876220703125,1109.00634765625,79.3125
1659026348619032600,2.657032470703125,-267.6187744140625,1109.268798828125,79.01250457763672
1659026348629032400,2.667032470703125,-267.9375,1109.9625244140625,78.82500457763672
1659026348639032600,2.677032470703125,-268.3312683105469,1110.28125,78.6187515258789
1659026348649031200,2.68703125,-268.6500244140625,1110.6375732421875,78.26250457763672
1659026348659031000,2.697031005859375,-268.875,1110.9000244140625,77.8687515258789
1659026348669031000,2.707031005859375,-269.0250244140625,1111.1812744140625,77.19375610351562
1659026348679031000,2.717031005859375,-269.15625,1111.3125,76.63125610351562
1659026348689031000,2.727031005859375,-269.3625183105469,1111.6875,76.40625
1659026348699031000,2.737031005859375,-269.2875061035156,1111.800048828125,75.9937515258789
1659026348709031000,2.747031005859375,-269.25,1111.6688232421875,75.76875305175781
1659026348719031000,2.757031005859375,-269.2875061035156,1111.8375244140625,75.46875
1659026348729031000,2.767031005859375,-269.3625183105469,1111.63134765625,75.1875
1659026348739031000,2.777031005859375,-269.23126220703125,1111.78125,75.30000305175781
1659026348749031000,2.787031005859375,-269.41876220703125,1111.6875,75.45000457763672
1659026348759031000,2.797031005859375,-269.2125244140625,1111.6500244140625,75.60000610351562
1659026348769031000,2.807031005859375,-269.23126220703125,1111.53759765625,75.39375305175781
1659026348779031000,2.817031005859375,-269.34375,1111.63134765625,75.58125305175781
1659026348789031000,2.827031005859375,-269.5500183105469,1111.7437744140625,75.28125
1659026348799031000,2.837031005859375,-269.625,1111.7625732421875,75.07500457763672
1659026348809031000,2.847031005859375,-269.5875244140625,1112.25,74.85000610351562
1659026348819031000,2.857031005859375,-270,1112.4937744140625,74.23125457763672
1659026348829031000,2.867031005859375,-269.8125,1112.85009765625,73.61250305175781
1659026348839031000,2.877031005859375,-269.7562561035156,1113.1875,72.86250305175781
1659026348849031000,2.887031005859375,-269.98126220703125,1113.60009765625,72.26250457763672
1659026348859031000,2.897031005859375,-270.1875,1113.97509765625,71.28750610351562
1659026348869031000,2.907031005859375,-270.0187683105469,1114.53759765625,70.3125
1659026348879031000,2.917031005859375,-269.8687744140625,1115.15625,69.03750610351562
1659026348889031000,2.927031005859375,-269.90625,1115.737548828125,67.6500015258789
1659026348899031000,2.937031005859375,-269.60626220703125,1116.300048828125,66.26250457763672
1659026348909031000,2.947031005859375,-269.4375,1116.9375,64.6500015258789
1659026348919031000,2.957031005859375,-269.3812561035156,1117.5562744140625,63.20625305175781
1659026348929031000,2.967031005859375,-269.0062561035156,1118.2125244140625,61.91250228881836
1659026348939031000,2.977031005859375,-268.5375061035156,1118.6812744140625,60.431251525878906
1659026348949031000,2.987031005859375,-268.4250183105469,1119.206298828125,59.13750076293945
1659026348959031000,2.997031005859375,-268.3687744140625,1119.6187744140625,57.806251525878906
1659026348969031000,3.007031005859375,-268.2750244140625,1119.9375,56.66250228881836
1659026348979031000,3.017031005859375,-268.1812744140625,1120.1812744140625,55.743751525878906
1659026348989031000,3.027031005859375,-268.40625,1120.3687744140625,55.087501525878906
1659026348999031000,3.037031005859375,-268.48126220703125,1120.4625244140625,54.712501525878906
1659026349009031000,3.047031005859375,-268.7062683105469,1120.21875,54.281253814697266
1659026349019031000,3.057031005859375,-269.13751220703125,1120.2750244140625,54.26250076293945
1659026349029031000,3.067031005859375,-269.32501220703125,1120.03125,54.525001525878906
1659026349039031000,3.077031005859375,-269.9625244140625,1119.4500732421875,55.275001525878906
1659026349049031000,3.087031005859375,-270.5250244140625,1118.8125,56.36250305175781
1659026349059031000,3.097031005859375,-271.2750244140625,1117.91259765625,57.45000076293945
1659026349069031000,3.107031005859375,-271.78125,1116.675048828125,58.89375305175781
1659026349079031000,3.117031005859375,-272.13751220703125,1115.47509765625,60.750003814697266
1659026349089031000,3.127031005859375,-272.15625,1114.2750244140625,62.812503814697266
1659026349099031000,3.137031005859375,-271.875,1112.831298828125,65.13750457763672
1659026349109031000,3.147031005859375,-271.1625061035156,1111.1812744140625,67.76250457763672
1659026349119031000,3.157031005859375,-269.9250183105469,1109.550048828125,70.38750457763672
1659026349129031000,3.167031005859375,-268.29376220703125,1108.03125,73.23750305175781
1659026349139031000,3.177031005859375,-265.9125061035156,1106.94384765625,76.10625457763672
1659026349149031000,3.187031005859375,-263.1750183105469,1106.175048828125,78.7125015258789
1659026349159031000,3.197031005859375,-260.32501220703125,1105.5562744140625,80.75625610351562
1659026349169031000,3.207031005859375,-257.1187744140625,1105.2000732421875,82.48125457763672
1659026349179031000,3.217031005859375,-253.81875610351562,1105.2000732421875,84.0562515258789
1659026349189031000,3.227031005859375,-250.81875610351562,1106.00634765625,84.8062515258789
1659026349199031000,3.237031005859375,-247.57501220703125,1107.1875,85.14375305175781
1659026349209031000,3.247031005859375,-244.91250610351562,1108.331298828125,84.76875305175781
1659026349219031000,3.257031005859375,-242.8312530517578,1109.6812744140625,83.9625015258789
1659026349229031000,3.267031005859375,-240.93751525878906,1111.125,82.95000457763672
1659026349239031000,3.277031005859375,-239.71876525878906,1112.6063232421875,81.58125305175781
1659026349249031000,3.287031005859375,-238.8937530517578,1114.2000732421875,80.04375457763672
1659026349259031000,3.297031005859375,-238.65000915527344,1115.38134765625,78.13125610351562
1659026349269031000,3.307031005859375,-238.44375610351562,1115.9625244140625,76.51875305175781
1659026349279031000,3.317031005859375,-238.8937530517578,1116.65625,74.83125305175781
1659026349289031000,3.327031005859375,-239.47500610351562,1117.21875,73.29375457763672
1659026349299031000,3.337031005859375,-239.96250915527344,1117.53759765625,72.03750610351562
1659026349309031000,3.347031005859375,-240.90000915527344,1117.706298828125,70.81875610351562
1659026349319031000,3.357031005859375,-241.72500610351562,1118.00634765625,70.03125
1659026349329031000,3.367031005859375,-242.62501525878906,1118.0438232421875,69.5250015258789
1659026349339031000,3.377031005859375,-243.09376525878906,1118.15625,69
1659026349349031000,3.387031005859375,-243.73126220703125,1118.3062744140625,68.56875610351562
1659026349359031000,3.397031005859375,-244.3312530517578,1118.38134765625,68.47500610351562
1659026349369031000,3.407031005859375,-244.57501220703125,1118.38134765625,68.53125
1659026349379031000,3.417031005859375,-244.93125915527344,1118.4000244140625,68.4375
1659026349389031000,3.427031005859375,-245.2687530517578,1118.456298828125,68.53125
1659026349399031000,3.437031005859375,-245.43751525878906,1118.34375,68.45625305175781
1659026349409031000,3.447031005859375,-245.5500030517578,1118.1375732421875,68.4000015258789
1659026349419031000,3.457031005859375,-245.9250030517578,1118.1187744140625,68.51250457763672
1659026349429031000,3.467031005859375,-246.03750610351562,1118.0250244140625,68.64375305175781
1659026349439031000,3.477031005859375,-246.46876525878906,1117.8563232421875,68.5875015258789
1659026349449031000,3.487031005859375,-246.82501220703125,1117.78125,68.38125610351562
1659026349459031000,3.497031005859375,-247.16250610351562,1117.5750732421875,68.26875305175781
1659026349469031000,3.507031005859375,-247.44375610351562,1117.237548828125,68.08125305175781
1659026349479031000,3.517031005859375,-247.68751525878906,1117.1063232421875,67.7437515258789
1659026349489031000,3.527031005859375,-247.91250610351562,1117.1063232421875,67.51875305175781
1659026349499031000,3.537031005859375,-247.9875030517578,1117.0875244140625,67.44375610351562
1659026349509031000,3.547031005859375,-248.23126220703125,1116.97509765625,67.25625610351562
1659026349519031000,3.557031005859375,-248.34376525878906,1116.9375,67.05000305175781
1659026349529031000,3.567031005859375,-248.40000915527344,1116.768798828125,66.91875457763672
1659026349539031000,3.577031005859375,-248.38125610351562,1116.862548828125,66.9000015258789
1659026349549031000,3.587031005859375,-248.7375030517578,1116.9937744140625,66.88125610351562
1659026349559031000,3.597031005859375,-248.79376220703125,1116.8250732421875,66.84375
1659026349569031000,3.607031005859375,-248.90626525878906,1116.7313232421875,66.6187515258789
1659026349579031000,3.617031005859375,-248.9250030517578,1116.4312744140625,66.46875
1659026349589031000,3.627031005859375,-249.28126525878906,1116.1875,66.50625610351562
1659026349599031000,3.637031005859375,-249.31875610351562,1115.90625,66.69375610351562
1659026349609031000,3.647031005859375,-249.56251525878906,1115.75634765625,66.86250305175781
1659026349619031000,3.657031005859375,-249.7687530517578,1115.4375,66.76875305175781
1659026349629031000,3.667031005859375,-249.65626525878906,1115.268798828125,66.75
1659026349639031000,3.677031005859375,-249.73126220703125,1114.9312744140625,67.06875610351562
1659026349649031000,3.687031005859375,-249.97500610351562,1114.6688232421875,67.23750305175781
1659026349659031000,3.697031005859375,-250.3312530517578,1114.3687744140625,67.38750457763672
1659026349669031000,3.707031005859375,-250.3312530517578,1114.237548828125,67.29375457763672
1659026349679031000,3.717031005859375,-250.44375610351562,1114.125,67.125
1659026349689031000,3.727031005859375,-250.44375610351562,1114.050048828125,66.9937515258789
1659026349699031000,3.737031005859375,-250.72500610351562,1113.9000244140625,67.10625457763672
1659026349709031000,3.747031005859375,-250.65000915527344,1113.78759765625,67.125
1659026349719031000,3.757031005859375,-251.00625610351562,1113.768798828125,66.82500457763672
1659026349729031000,3.767031005859375,-250.96876525878906,1113.768798828125,66.86250305175781
1659026349739031000,3.777031005859375,-250.93125915527344,1113.862548828125,66.48750305175781
1659026349749031000,3.787031005859375,-250.93125915527344,1113.862548828125,66.45000457763672
1659026349759031000,3.797031005859375,-250.78126525878906,1113.78759765625,66.30000305175781
1659026349769031000,3.807031005859375,-250.8000030517578,1113.7125244140625,66.26250457763672
1659026349779031000,3.817031005859375,-250.72500610351562,1113.6375732421875,66.11250305175781
1659026349789031000,3.827031005859375,-250.85626220703125,1113.4312744140625,65.83125305175781
1659026349799031000,3.837031005859375,-250.6125030517578,1113.31884765625,65.6812515258789
1659026349809031000,3.847031005859375,-250.74375915527344,1113.13134765625,65.625
1659026349819031000,3.857031005859375,-250.74375915527344,1113.1500244140625,65.8125
1659026349829031000,3.867031005859375,-250.91250610351562,1112.9625244140625,65.75625610351562
1659026349839031000,3.877031005859375,-251.06251525878906,1112.8687744140625,65.85000610351562
1659026349849031000,3.887031005859375,-251.0812530517578,1112.7750244140625,66.01875305175781
1659026349859031000,3.897031005859375,-250.93125915527344,1112.7938232421875,66.30000305175781
1659026349869031000,3.907031005859375,-250.9875030517578,1112.6063232421875,66.58125305175781
1659026349879031000,3.917031005859375,-251.25001525878906,1112.6063232421875,66.84375
1659026349889031000,3.927031005859375,-251.34376525878906,1112.268798828125,67.20000457763672
1659026349899031000,3.937031005859375,-251.60626220703125,1112.0250244140625,67.4625015258789
1659026349909031000,3.947031005859375,-251.51251220703125,1112.175048828125,67.78125
1659026349919031000,3.957031005859375,-251.6437530517578,1111.7625732421875,68.04375457763672
1659026349929031000,3.967031005859375,-251.7375030517578,1111.5562744140625,68.25
1659026349939031000,3.977031005859375,-251.8312530517578,1111.4625244140625,68.47500610351562
1659026349949031000,3.987031005859375,-251.98126220703125,1111.59375,68.90625
1659026349959031000,3.997031005859375,-251.77500915527344,1111.72509765625,69.5625
1659026349969031000,4.007031005859375,-251.60626220703125,1111.893798828125,69.88125610351562
1659026349979031000,4.017031005859375,-251.68125915527344,1111.91259765625,70.25625610351562
1659026349989031000,4.027031005859375,-251.9250030517578,1112.00634765625,70.81875610351562
1659026349999031000,4.037031005859375,-251.86875915527344,1112.28759765625,71.28750610351562
1659026350009031000,4.047031005859375,-252.09376525878906,1112.268798828125,71.83125305175781
1659026350019031000,4.057031005859375,-252.28126525878906,1112.25,72.26250457763672
1659026350029031000,4.067031005859375,-252.16876220703125,1112.25,72.76875305175781
1659026350039031000,4.077031005859375,-252.3000030517578,1112.10009765625,72.95625305175781
1659026350049031000,4.087031005859375,-252.41250610351562,1112.2313232421875,73.29375457763672
1659026350059031000,4.097031005859375,-252.41250610351562,1112.47509765625,73.6500015258789
1659026350069031000,4.107031005859375,-252.63751220703125,1112.19384765625,73.91250610351562
1659026350079031000,4.117031005859375,-252.75001525878906,1112.4375,74.4375
1659026350089031000,4.127031005859375,-252.52500915527344,1112.6063232421875,74.85000610351562
1659026350099031000,4.137031005859375,-252.4875030517578,1112.6063232421875,75.16875457763672
1659026350109031000,4.147031005859375,-252.5812530517578,1112.7750244140625,75.65625
1659026350119031000,4.157031005859375,-252.54376220703125,1112.7938232421875,76.2750015258789
1659026350129031000,4.167031005859375,-252.6750030517578,1112.9625244140625,76.78125
1659026350139031000,4.177031005859375,-252.56251525878906,1112.56884765625,77.2125015258789
1659026350149031000,4.187031005859375,-252.45001220703125,1112.6812744140625,77.60625457763672
1659026350159031000,4.197031005859375,-252.5812530517578,1112.643798828125,77.73750305175781
1659026350169031000,4.207031005859375,-252.63751220703125,1112.7000732421875,77.83125305175781
1659026350179031000,4.217031005859375,-252.63751220703125,1112.7750244140625,78.11250305175781
1659026350189031000,4.227031005859375,-252.61875915527344,1112.7938232421875,78.0562515258789
1659026350199031000,4.237031005859375,-252.78750610351562,1112.85009765625,77.6812515258789
1659026350209031000,4.247031005859375,-252.63751220703125,1112.643798828125,77.28750610351562
1659026350219031000,4.257031005859375,-252.90000915527344,1112.85009765625,77.2125015258789
1659026350229031000,4.267031005859375,-252.9562530517578,1112.90625,77.04375457763672
1659026350239031000,4.277031005859375,-252.73126220703125,1112.8687744140625,76.70625305175781
1659026350249031000,4.287031005859375,-253.01251220703125,1112.9625244140625,76.38750457763672
1659026350259031000,4.297031005859375,-253.0500030517578,1113.1500244140625,75.88125610351562
1659026350269031000,4.307031005859375,-253.18125915527344,1112.9813232421875,75.1875
1659026350279031000,4.317031005859375,-253.06875610351562,1112.90625,74.8687515258789
1659026350289031000,4.327031005859375,-253.0500030517578,1113.03759765625,74.1187515258789
1659026350299031000,4.337031005859375,-252.6750030517578,1113.206298828125,73.3687515258789
1659026350309031000,4.347031005859375,-252.3937530517578,1113.375,72.58125305175781
1659026350319031000,4.357031005859375,-252.41250610351562,1113.6375732421875,71.83125305175781
1659026350329031000,4.367031005859375,-252.1125030517578,1113.7125244140625,71.17500305175781
1659026350339031000,4.377031005859375,-251.9250030517578,1113.78759765625,70.78125
1659026350349031000,4.387031005859375,-251.68125915527344,1114.050048828125,70.57500457763672
1659026350359031000,4.397031005859375,-251.47500610351562,1114.21875,70.3125
1659026350369031000,4.407031005859375,-251.41876220703125,1114.2938232421875,70.4625015258789
1659026350379031000,4.417031005859375,-251.30625915527344,1114.143798828125,70.35000610351562
1659026350389031000,4.427031005859375,-251.51251220703125,1114.03125,70.10625457763672
1659026350399031000,4.437031005859375,-251.43751525878906,1113.65625,70.03125
1659026350409031000,4.447031005859375,-251.53126525878906,1113.393798828125,70.05000305175781
1659026350419031000,4.457031005859375,-251.5500030517578,1113.112548828125,69.97500610351562
1659026350429031000,4.467031005859375,-251.60626220703125,1112.737548828125,70.06875610351562
1659026350439031000,4.477031005859375,-251.90626525878906,1112.456298828125,69.84375
1659026350449031000,4.487031005859375,-251.98126220703125,1112.28759765625,69.73125457763672
1659026350459031000,4.497031005859375,-252.1125030517578,1112.28759765625,69.50625610351562
1659026350469031000,4.507031005859375,-252.00001525878906,1112.081298828125,69.48750305175781
1659026350479031000,4.517031005859375,-252.00001525878906,1112.2313232421875,69.7125015258789
1659026350489031000,4.527031005859375,-251.77500915527344,1112.38134765625,69.5250015258789
1659026350499031000,4.537031005859375,-251.70001220703125,1112.4000244140625,69.3375015258789
1659026350509031000,4.547031005859375,-251.62501525878906,1112.643798828125,68.9625015258789
1659026350519031000,4.557031005859375,-251.5500030517578,1112.85009765625,69
1659026350529031000,4.567031005859375,-251.6437530517578,1112.7750244140625,68.83125305175781
1659026350539031000,4.577031005859375,-251.7375030517578,1112.85009765625,68.75625610351562
1659026350549031000,4.587031005859375,-251.66250610351562,1113.03759765625,68.60625457763672
1659026350559031000,4.597031005859375,-251.60626220703125,1112.85009765625,68.04375457763672
1659026350569031000,4.607031005859375,-251.77500915527344,1112.7750244140625,67.89375305175781
1659026350579031000,4.617031005859375,-252.03750610351562,1112.8875732421875,67.7437515258789
1659026350589031000,4.627031005859375,-251.96250915527344,1112.6812744140625,67.53750610351562
1659026350599031000,4.637031005859375,-251.9250030517578,1112.643798828125,67.23750305175781
1659026350609031000,4.647031005859375,-251.81251525878906,1112.456298828125,67.01250457763672
1659026350619031000,4.657031005859375,-251.86875915527344,1112.3250732421875,67.10625457763672
1659026350629031000,4.667031005859375,-251.75625610351562,1112.268798828125,66.88125610351562
1659026350639031000,4.677031005859375,-251.86875915527344,1112.34375,67.23750305175781
1659026350649031000,4.687031005859375,-251.79376220703125,1112.0438232421875,67.14375305175781
1659026350659031000,4.697031005859375,-251.56875610351562,1111.987548828125,67.3687515258789
1659026350669031000,4.707031005859375,-251.68125915527344,1112.15625,67.57500457763672
1659026350679031000,4.717031005859375,-251.6437530517578,1111.96875,67.6500015258789
1659026350689031000,4.727031005859375,-251.71876525878906,1111.987548828125,67.81875610351562
1659026350699031000,4.737031005859375,-251.68125915527344,1111.9500732421875,67.81875610351562
1659026350709031000,4.747031005859375,-252.00001525878906,1111.875,68.19375610351562
1659026350719031000,4.757031005859375,-252.03750610351562,1111.72509765625,68.4375
1659026350729031000,4.767031005859375,-252.16876220703125,1111.800048828125,68.73750305175781
1659026350739031000,4.777031005859375,-252.45001220703125,1111.6688232421875,68.98125457763672
1659026350749031000,4.787031005859375,-252.60000610351562,1111.331298828125,69.13125610351562
1659026350759031000,4.797031005859375,-252.6750030517578,1111.2938232421875,69.3375015258789
1659026350769031000,4.807031005859375,-252.71250915527344,1111.3875732421875,69.7125015258789
1659026350779031000,4.817031005859375,-252.65626525878906,1111.3875732421875,69.9375
1659026350789031000,4.827031005859375,-252.46876525878906,1111.3125,70.4625015258789
1659026350799031000,4.837031005859375,-252.56251525878906,1111.331298828125,70.59375
1659026350809031000,4.847031005859375,-252.65626525878906,1111.2000732421875,70.98750305175781
1659026350819031000,4.857031005859375,-252.5812530517578,1111.125,71.04375457763672
1659026350829031000,4.867031005859375,-252.60000610351562,1111.050048828125,71.34375
1659026350839031000,4.877031005859375,-252.82501220703125,1110.9375,71.56875610351562
1659026350849031000,4.887031005859375,-252.80625915527344,1110.84375,71.73750305175781
1659026350859031000,4.897031005859375,-252.97500610351562,1110.768798828125,72.1875
1659026350869031000,4.907031005859375,-253.0500030517578,1110.675048828125,72.26250457763672
1659026350879031000,4.917031005859375,-253.01251220703125,1110.60009765625,72.5250015258789
1659026350889031000,4.927031005859375,-252.97500610351562,1110.69384765625,72.6187515258789
1659026350899031000,4.937031005859375,-252.93751525878906,1110.675048828125,73.01250457763672
1659026350909031000,4.947031005859375,-252.97500610351562,1110.7313232421875,73.3125
1659026350919031000,4.957031005859375,-252.80625915527344,1110.8250732421875,73.9312515258789
1659026350929031000,4.967031005859375,-252.99375915527344,1110.6187744140625,74.4000015258789
1659026350939031000,4.977031005859375,-252.88125610351562,1110.4312744140625,74.71875
1659026350949031000,4.987031005859375,-252.73126220703125,1110.28125,75
1659026350959031000,4.997031005859375,-252.90000915527344,1110.28125,75.20625305175781
1659026350969031000,5.007031005859375,-252.8625030517578,1110.1875,75.58125305175781
1659026350979031000,5.017031005859375,-253.20001220703125,1110.112548828125,75.69375610351562
1659026350989031000,5.027031005859375,-253.0500030517578,1110.112548828125,75.88125610351562
1659026350999031000,5.037031005859375,-253.16250610351562,1109.831298828125,75.78750610351562
1659026351009031000,5.047031005859375,-253.10626220703125,1109.75634765625,75.58125305175781
1659026351019031000,5.057031005859375,-253.0500030517578,1109.66259765625,75.5250015258789
1659026351029031000,5.067031005859375,-253.0500030517578,1109.7938232421875,75.48750305175781
1659026351039031000,5.077031005859375,-252.90000915527344,1109.6063232421875,75.7125015258789
1659026351049031000,5.087031005859375,-252.75001525878906,1109.4937744140625,75.91875457763672
1659026351059031000,5.097031005859375,-252.63751220703125,1109.2313232421875,75.9375
1659026351069031000,5.107031005859375,-252.61875915527344,1108.9500732421875,76.3687515258789
1659026351079031000,5.117031005859375,-252.41250610351562,1108.9500732421875,76.78125
1659026351089031000,5.127031005859375,-252.43125915527344,1108.96875,77.26875305175781
1659026351099031000,5.137031005859375,-252.71250915527344,1108.987548828125,77.70000457763672
1659026351109031000,5.147031005859375,-252.78750610351562,1108.78125,77.98125457763672
1659026351119031000,5.157031005859375,-252.82501220703125,1108.8563232421875,78.16875457763672
1659026351129031000,5.167031005859375,-252.91876220703125,1108.8375244140625,77.98125457763672
1659026351139031000,5.177031005859375,-252.73126220703125,1108.8563232421875,78.30000305175781
1659026351149031000,5.187031005859375,-252.84376525878906,1109.0438232421875,78.11250305175781
1659026351159031000,5.197031005859375,-252.7687530517578,1109.081298828125,77.88750457763672
1659026351169031000,5.207031005859375,-252.65626525878906,1109.10009765625,77.5875015258789
1659026351179031000,5.217031005859375,-252.41250610351562,1109.081298828125,77.36250305175781
1659026351189031000,5.227031005859375,-252.60000610351562,1109.1187744140625,77.23125457763672
1659026351199031000,5.237031005859375,-252.54376220703125,1109.081298828125,77.19375610351562
1659026351209031000,5.247031005859375,-252.4875030517578,1109.10009765625,77.51250457763672
1659026351219031000,5.257031005859375,-252.3937530517578,1109.0625,77.51250457763672
1659026351229031000,5.267031005859375,-252.3937530517578,1108.893798828125,77.8125
1659026351239031000,5.277031005859375,-252.35626220703125,1108.91259765625,78.03750610351562
1659026351249031000,5.287031005859375,-252.28126525878906,1109.00634765625,78.6187515258789
1659026351259031000,5.297031005859375,-252.33750915527344,1109.175048828125,79.29375457763672
1659026351269031000,5.307031005859375,-252.15000915527344,1109.28759765625,80.10000610351562
1659026351279031000,5.317031005859375,-252.37501525878906,1109.175048828125,80.7750015258789
1659026351289031000,5.327031005859375,-252.22500610351562,1109.28759765625,81.60000610351562
1659026351299031000,5.337031005859375,-252.24375915527344,1109.6063232421875,82.21875
1659026351309031000,5.347031005859375,-252.0187530517578,1109.85009765625,82.76250457763672
1659026351319031000,5.357031005859375,-252.00001525878906,1109.9625244140625,83.45625305175781
1659026351329031000,5.367031005859375,-251.77500915527344,1110.09375,84.09375
1659026351339031000,5.377031005859375,-251.51251220703125,1110.3375244140625,84.31875610351562
1659026351349031000,5.387031005859375,-251.30625915527344,1110.5625,84.4312515258789
1659026351359031000,5.397031005859375,-250.68751525878906,1111.0125732421875,84.73125457763672
1659026351369031000,5.407031005859375,-250.50001525878906,1111.2938232421875,84.60000610351562
1659026351379031000,5.417031005859375,-250.16250610351562,1111.53759765625,84.75
1659026351389031000,5.427031005859375,-250.0500030517578,1112.0625,84.5250015258789
1659026351399031000,5.437031005859375,-249.6750030517578,1112.66259765625,84.2437515258789
1659026351409031000,5.447031005859375,-249.35626220703125,1113.03759765625,83.625
1659026351419031000,5.457031005859375,-249.03750610351562,1113.5625,83.1187515258789
1659026351429031000,5.467031005859375,-248.62501525878906,1113.88134765625,82.48125457763672
1659026351439031000,5.477031005859375,-248.40000915527344,1114.3687744140625,81.69375610351562
1659026351449031000,5.487031005859375,-247.8000030517578,1114.78125,80.625
1659026351459031000,5.497031005859375,-247.08750915527344,1115.1375732421875,79.48125457763672
1659026351469031000,5.507031005859375,-246.22500610351562,1115.34375,78.60000610351562
1659026351479031000,5.517031005859375,-245.43751525878906,1115.28759765625,77.4375
1659026351489031000,5.527031005859375,-244.10626220703125,1115.268798828125,76.33125305175781
1659026351499031000,5.537031005859375,-242.51251220703125,1114.81884765625,75.0562515258789
1659026351509031000,5.547031005859375,-240.6750030517578,1114.2750244140625,73.78125
1659026351519031000,5.557031005859375,-238.38751220703125,1112.9625244140625,72.3375015258789
1659026351529031000,5.567031005859375,-235.8937530517578,1111.331298828125,71.17500305175781
1659026351539031000,5.577031005859375,-233.10000610351562,1109.10009765625,69.5250015258789
1659026351549031000,5.587031005859375,-229.81875610351562,1105.91259765625,67.7437515258789
1659026351559031000,5.597031005859375,-226.4250030517578,1101.84375,66.16875457763672
1659026351569031000,5.607031005859375,-223.8937530517578,1096.3875732421875,64.16250610351562
1659026351579031000,5.617031005859375,-221.77500915527344,1089.88134765625,62.062503814697266
1659026351589031000,5.627031005859375,-221.06251525878906,1082.175048828125,59.51250076293945
1659026351599031000,5.637031005859375,-222.3937530517578,1074.22509765625,56.681251525878906
1659026351609031000,5.647031005859375,-226.01251220703125,1066.143798828125,54.01875305175781
1659026351619031000,5.657031005859375,-231.84376525878906,1058.53125,51.806251525878906
1659026351629031000,5.667031005859375,-239.86875915527344,1052.47509765625,49.89375305175781
1659026351639031000,5.677031005859375,-249.6750030517578,1048.143798828125,48.656253814697266
1659026351649031000,5.687031005859375,-260.4000244140625,1045.6875,48.03750228881836
1659026351659031000,5.697031005859375,-271.7062683105469,1045.3125,48.39375305175781
1659026351669031000,5.707031005859375,-282.45001220703125,1047.28125,49.837501525878906
1659026351679031000,5.717031005859375,-291.9937744140625,1050.41259765625,52.10625076293945
1659026351689031000,5.727031005859375,-300.1312561035156,1054.612548828125,54.76875305175781
1659026351699031000,5.737031005859375,-306.5812683105469,1059.487548828125,57.97500228881836
1659026351709031000,5.747031005859375,-311.3812561035156,1063.800048828125,61.38750076293945
1659026351719031000,5.757031005859375,-314.88751220703125,1068.03759765625,64.44375610351562
1659026351729031000,5.767031005859375,-316.8937683105469,1071.862548828125,67.57500457763672
1659026351739031000,5.777031005859375,-318.3000183105469,1074.88134765625,70.33125305175781
1659026351749031000,5.787031005859375,-319.125,1077.2625732421875,72.84375
1659026351759031000,5.797031005859375,-319.6125183105469,1079.6812744140625,75.22500610351562
1659026351769031000,5.807031005859375,-319.6125183105469,1081.63134765625,76.95000457763672
1659026351779031000,5.817031005859375,-319.6125183105469,1083.0750732421875,78.13125610351562
1659026351789031000,5.827031005859375,-319.5562744140625,1084.7437744140625,78.86250305175781
1659026351799031000,5.837031005859375,-319.3125,1086.0750732421875,79.35000610351562
1659026351809031000,5.847031005859375,-319.6875,1087.143798828125,79.25625610351562
1659026351819031000,5.857031005859375,-319.66876220703125,1088.643798828125,79.06875610351562
1659026351829031000,5.867031005859375,-319.9312744140625,1089.9188232421875,78.5250015258789
1659026351839031000,5.877031005859375,-320.1000061035156,1091.0625,77.60625457763672
1659026351849031000,5.887031005859375,-320.4750061035156,1092.393798828125,76.76250457763672
1659026351859031000,5.897031005859375,-320.8687744140625,1093.706298828125,75.84375
1659026351869031000,5.907031005859375,-321.1312561035156,1094.56884765625,74.98125457763672
1659026351879031000,5.917031005859375,-321.45001220703125,1095.5250244140625,74.00625610351562
1659026351889031000,5.927031005859375,-321.6000061035156,1096.72509765625,73.33125305175781
1659026351899031000,5.937031005859375,-321.8062744140625,1097.362548828125,72.58125305175781
1659026351909031000,5.947031005859375,-321.9937744140625,1097.8125,71.8687515258789
1659026351919031000,5.957031005859375,-322.1437683105469,1097.831298828125,71.04375457763672
1659026351929031000,5.967031005859375,-322.1625061035156,1097.3062744140625,70.5
1659026351939031000,5.977031005859375,-322.20001220703125,1096.5,69.9937515258789
1659026351949031000,5.987031005859375,-322.2562561035156,1095.6375732421875,69.67500305175781
1659026351959031000,5.997031005859375,-322.3687744140625,1094.10009765625,69.4312515258789
1659026351969031000,6.007031005859375,-322.3312683105469,1092.1688232421875,69.30000305175781
1659026351979031000,6.017031005859375,-322.1625061035156,1090.03125,69
1659026351989031000,6.027031005859375,-321.75,1088.00634765625,69.01875305175781
1659026351999031000,6.037031005859375,-321.28125,1086.1688232421875,69.20625305175781
1659026352009031000,6.047031005859375,-320.9250183105469,1084.237548828125,69.31875610351562
1659026352019031000,6.057031005859375,-320.4000244140625,1082.625,69.45000457763672
1659026352029031000,6.067031005859375,-320.13751220703125,1081.425048828125,69.67500305175781
1659026352039031000,6.077031005859375,-319.6312561035156,1080.3375244140625,69.97500610351562
1659026352049031000,6.087031005859375,-319.4625244140625,1080.0562744140625,70.3125
1659026352059031000,6.097031005859375,-319.59375,1079.7750244140625,70.76250457763672
1659026352069031000,6.107031005859375,-319.78125,1079.66259765625,71.13750457763672
1659026352079031000,6.117031005859375,-320.1937561035156,1079.643798828125,71.0250015258789
1659026352089031000,6.127031005859375,-320.4750061035156,1080.1500244140625,71.15625
1659026352099031000,6.137031005859375,-321.26251220703125,1080.60009765625,71.34375
1659026352109031000,6.147031005859375,-322.125,1080.84375,71.13750457763672
1659026352119031000,6.157031005859375,-323.23126220703125,1081.5750732421875,70.85625457763672
1659026352129031000,6.167031005859375,-324.2062683105469,1082.081298828125,70.59375
1659026352139031000,6.177031005859375,-325.5562744140625,1083.3563232421875,69.9937515258789
1659026352149031000,6.187031005859375,-327.07501220703125,1084.8563232421875,69.28125
1659026352159031000,6.197031005859375,-329.04376220703125,1086.768798828125,68.9625015258789
1659026352169031000,6.207031005859375,-330.9375,1088.90625,68.38125610351562
1659026352179031000,6.217031005859375,-332.53125,1091.34375,67.5562515258789
1659026352189031000,6.227031005859375,-334.2750244140625,1094.081298828125,66.5625
1659026352199031000,6.237031005859375,-335.98126220703125,1096.91259765625,65.83125305175781
1659026352209031000,6.247031005859375,-337.6312561035156,1099.7625732421875,64.875
1659026352219031000,6.257031005859375,-338.8312683105469,1102.143798828125,64.14375305175781
1659026352229031000,6.267031005859375,-340.2375183105469,1104.2625732421875,63.243751525878906
1659026352239031000,6.277031005859375,-340.9875183105469,1106.081298828125,62.681251525878906
1659026352249031000,6.287031005859375,-341.98126220703125,1107.6187744140625,62.025001525878906
1659026352259031000,6.297031005859375,-342.6187744140625,1108.875,61.53750228881836
1659026352269031000,6.307031005859375,-342.9375,1109.737548828125,61.35000228881836
1659026352279031000,6.317031005859375,-343.125,1110.28125,61.25625228881836
1659026352289031000,6.327031005859375,-343.21875,1110.60009765625,61.20000076293945
1659026352299031000,6.337031005859375,-343.29376220703125,1111.1063232421875,61.05000305175781
1659026352309031000,6.347031005859375,-342.9000244140625,1111.5750732421875,61.125003814697266
1659026352319031000,6.357031005859375,-342.9562683105469,1111.9500732421875,60.843753814697266
1659026352329031000,6.367031005859375,-342.5812683105469,1112.0625,60.76875305175781
1659026352339031000,6.377031005859375,-342.3187561035156,1112.0250244140625,60.69375228881836
1659026352349031000,6.387031005859375,-342.0187683105469,1112.1375732421875,60.562503814697266
1659026352359031000,6.397031005859375,-341.8125,1112.3250732421875,60.26250076293945
1659026352369031000,6.407031005859375,-341.88751220703125,1112.66259765625,60.16875076293945
1659026352379031000,6.417031005859375,-341.71875,1112.5875244140625,59.962501525878906
1659026352389031000,6.427031005859375,-341.7750244140625,1112.7000732421875,59.812503814697266
1659026352399031000,6.437031005859375,-341.4562683105469,1112.66259765625,59.56875228881836
1659026352409031000,6.447031005859375,-341.4562683105469,1112.75634765625,59.26875305175781
1659026352419031000,6.457031005859375,-341.6812744140625,1113.09375,58.968753814697266
1659026352429031000,6.467031005859375,-341.9437561035156,1113.581298828125,58.70625305175781
1659026352439031000,6.477031005859375,-342.1312561035156,1113.78759765625,58.25625228881836
1659026352449031000,6.487031005859375,-341.90625,1114.0125732421875,57.73125076293945
1659026352459031000,6.497031005859375,-341.88751220703125,1114.3875732421875,57.41250228881836
1659026352469031000,6.507031005859375,-341.7562561035156,1114.6688232421875,56.92500305175781
1659026352479031000,6.517031005859375,-341.8312683105469,1114.987548828125,56.94375228881836
1659026352489031000,6.527031005859375,-341.5687561035156,1115.3062744140625,56.868751525878906
1659026352499031000,6.537031005859375,-341.3062744140625,1115.550048828125,56.64375305175781
1659026352509031000,6.547031005859375,-341.0625,1115.643798828125,56.437503814697266
1659026352519031000,6.557031005859375,-340.8375244140625,1116.018798828125,56.41875076293945
1659026352529031000,6.567031005859375,-340.4437561035156,1116.13134765625,56.437503814697266
1659026352539031000,6.577031005859375,-340.29376220703125,1116.1500244140625,56.60625076293945
1659026352549031000,6.587031005859375,-339.8062744140625,1116.28125,56.75625228881836
1659026352559031000,6.597031005859375,-338.98126220703125,1116.41259765625,56.73750305175781
1659026352569031000,6.607031005859375,-338.53125,1116.3375244140625,56.775001525878906
1659026352579031000,6.617031005859375,-337.8937683105469,1116.1500244140625,57.056251525878906
1659026352589031000,6.627031005859375,-336.9562683105469,1115.8687744140625,57.431251525878906
1659026352599031000,6.637031005859375,-336.28125,1115.1375732421875,57.76875305175781
1659026352609031000,6.647031005859375,-335.8312683105469,1114.706298828125,58.087501525878906
1659026352619031000,6.657031005859375,-335.0625,1114.1812744140625,58.312503814697266
1659026352629031000,6.667031005859375,-334.6312561035156,1113.300048828125,58.48125076293945
1659026352639031000,6.677031005859375,-334.2750244140625,1112.5125732421875,58.500003814697266
1659026352649031000,6.687031005859375,-333.7875061035156,1111.9500732421875,58.875003814697266
1659026352659031000,6.697031005859375,-333.6000061035156,1111.143798828125,59.19375228881836
1659026352669031000,6.707031005859375,-333.5250244140625,1110.393798828125,59.400001525878906
1659026352679031000,6.717031005859375,-333,1109.8125,59.625003814697266
1659026352689031000,6.727031005859375,-332.90625,1108.875,60.01875305175781
1659026352699031000,6.737031005859375,-332.60626220703125,1108.21875,60.375003814697266
1659026352709031000,6.747031005859375,-332.5500183105469,1107.46875,60.900001525878906
1659026352719031000,6.757031005859375,-332.51251220703125,1106.28759765625,61.33125305175781
1659026352729031000,6.767031005859375,-332.4562683105469,1105.237548828125,61.63125228881836
1659026352739031000,6.777031005859375,-332.2875061035156,1104.50634765625,61.81875228881836
1659026352749031000,6.787031005859375,-332.34375,1103.66259765625,61.85625076293945
1659026352759031000,6.797031005859375,-332.6625061035156,1103.175048828125,61.91250228881836
1659026352769031000,6.807031005859375,-332.4750061035156,1102.8563232421875,61.81875228881836
1659026352779031000,6.817031005859375,-333.09375,1102.6688232421875,61.743751525878906
1659026352789031000,6.827031005859375,-333.35626220703125,1102.78125,61.33125305175781
1659026352799031000,6.837031005859375,-333.63751220703125,1103.2313232421875,61.312503814697266
1659026352809031000,6.847031005859375,-334.1812744140625,1103.550048828125,61.05000305175781
1659026352819031000,6.857031005859375,-334.5187683105469,1103.831298828125,60.95625305175781
1659026352829031000,6.867031005859375,-335.13751220703125,1104.3375244140625,60.88125228881836
1659026352839031000,6.877031005859375,-335.51251220703125,1104.60009765625,60.73125076293945
1659026352849031000,6.887031005859375,-336.1312561035156,1105.050048828125,60.656253814697266
1659026352859031000,6.897031005859375,-336.4125061035156,1105.21875,60.45000076293945
1659026352869031000,6.907031005859375,-336.7687683105469,1105.44384765625,60.69375228881836
1659026352879031000,6.917031005859375,-337.2375183105469,1105.7437744140625,60.525001525878906
1659026352889031000,6.927031005859375,-337.4625244140625,1106.175048828125,60.39375305175781
1659026352899031000,6.937031005859375,-337.95001220703125,1106.7750244140625,59.98125076293945
1659026352909031000,6.947031005859375,-337.8187561035156,1107.22509765625,59.64375305175781
1659026352919031000,6.957031005859375,-337.96875,1107.9375,59.437503814697266
1659026352929031000,6.967031005859375,-337.875,1108.35009765625,59.025001525878906
1659026352939031000,6.977031005859375,-337.7250061035156,1108.96875,58.85625076293945
1659026352949031000,6.987031005859375,-337.8375244140625,1109.71875,58.462501525878906
1659026352959031000,6.997031005859375,-337.9125061035156,1110.2437744140625,58.14375305175781
1659026352969031000,7.007031005859375,-337.8937683105469,1110.97509765625,57.73125076293945
1659026352979031000,7.017031005859375,-337.7250061035156,1111.81884765625,57.468753814697266
1659026352989031000,7.027031005859375,-337.9312744140625,1112.737548828125,57.13125228881836
1659026352999031000,7.037031005859375,-337.95001220703125,1113.69384765625,56.681251525878906
1659026353009031000,7.047031005859375,-338.41876220703125,1115.00634765625,56.306251525878906
1659026353019031000,7.057031005859375,-338.625,1116.2625732421875,55.70625305175781
1659026353029031000,7.067031005859375,-338.5687561035156,1117.425048828125,55.06875228881836
1659026353039031000,7.077031005859375,-338.8125,1118.94384765625,54.41250228881836
1659026353049031000,7.087031005859375,-339.0187683105469,1120.35009765625,53.73750305175781
1659026353059031000,7.097031005859375,-339.3187561035156,1121.625,53.118751525878906
1659026353069031000,7.107031005859375,-339.3937683105469,1122.88134765625,52.44375228881836
1659026353079031000,7.117031005859375,-339.5812683105469,1124.2313232421875,51.73125076293945
1659026353089031000,7.127031005859375,-339.45001220703125,1125.3563232421875,50.775001525878906
1659026353099031000,7.137031005859375,-339.1500244140625,1126.40625,50.306251525878906
1659026353109031000,7.147031005859375,-339,1127.268798828125,49.743751525878906
1659026353119031000,7.157031005859375,-338.34375,1127.8687744140625,49.38750076293945
1659026353129031000,7.167031005859375,-337.6125183105469,1127.94384765625,49.218753814697266
1659026353139031000,7.177031005859375,-336.63751220703125,1127.38134765625,49.500003814697266
1659026353149031000,7.187031005859375,-335.41876220703125,1126.3687744140625,49.89375305175781
1659026353159031000,7.197031005859375,-333.75,1124.4937744140625,50.718753814697266
1659026353169031000,7.207031005859375,-331.6312561035156,1122.13134765625,51.95625305175781
1659026353179031000,7.217031005859375,-329.41876220703125,1119.22509765625,53.062503814697266
1659026353189031000,7.227031005859375,-326.7375183105469,1116.1500244140625,54.900001525878906
1659026353199031000,7.237031005859375,-323.53125,1112.643798828125,56.36250305175781
1659026353209031000,7.247031005859375,-319.95001220703125,1109.38134765625,58.10625076293945
1659026353219031000,7.257031005859375,-316.01251220703125,1106.362548828125,59.64375305175781
1659026353229031000,7.267031005859375,-311.6437683105469,1103.8125,61.125003814697266
1659026353239031000,7.277031005859375,-306.8625183105469,1101.9375,62.400001525878906
1659026353249031000,7.287031005859375,-301.96875,1100.625,63.78750228881836
1659026353259031000,7.297031005859375,-297.0562744140625,1100.0438232421875,64.95000457763672
1659026353269031000,7.307031005859375,-292.03125,1099.706298828125,65.75625610351562
1659026353279031000,7.317031005859375,-287.2125244140625,1100.1375732421875,66.67500305175781
1659026353289031000,7.327031005859375,-282.7125244140625,1100.9625244140625,67.4625015258789
1659026353299031000,7.337031005859375,-278.32501220703125,1102.143798828125,68.15625
1659026353309031000,7.347031005859375,-274.4437561035156,1103.550048828125,68.90625
1659026353319031000,7.357031005859375,-270.73126220703125,1104.7125244140625,69.73125457763672
1659026353329031000,7.367031005859375,-267.7125244140625,1105.96875,70.35000610351562
1659026353339031000,7.377031005859375,-265.10626220703125,1106.9813232421875,71.00625610351562
1659026353349031000,7.387031005859375,-262.7062683105469,1108.21875,71.56875610351562
1659026353359031000,7.397031005859375,-260.6812744140625,1109.1375732421875,72.07500457763672
1659026353369031000,7.407031005859375,-258.9937744140625,1109.8125,72.6187515258789
1659026353379031000,7.417031005859375,-257.51251220703125,1110.28125,73.16250610351562
1659026353389031000,7.427031005859375,-256.3125,1110.675048828125,73.66875457763672
1659026353399031000,7.437031005859375,-255.63751220703125,1111.3125,74.15625
1659026353409031000,7.447031005859375,-254.85000610351562,1111.6875,74.64375305175781
1659026353419031000,7.457031005859375,-254.06251525878906,1112.0438232421875,74.98125457763672
1659026353429031000,7.467031005859375,-253.53750610351562,1112.1375732421875,75.35625457763672
1659026353439031000,7.477031005859375,-253.29376220703125,1112.268798828125,75.76875305175781
1659026353449031000,7.487031005859375,-252.78750610351562,1112.4000244140625,75.95625305175781
1659026353459031000,7.497031005859375,-252.73126220703125,1112.71875,76.23750305175781
1659026353469031000,7.507031005859375,-252.35626220703125,1112.7938232421875,76.53750610351562
1659026353479031000,7.517031005859375,-252.15000915527344,1112.7750244140625,76.7437515258789
1659026353489031000,7.527031005859375,-252.13125610351562,1112.85009765625,76.98750305175781
1659026353499031000,7.537031005859375,-252.16876220703125,1113.03759765625,77.51250457763672
1659026353509031000,7.547031005859375,-252.35626220703125,1113.22509765625,77.70000457763672
1659026353519031000,7.557031005859375,-252.50625610351562,1113.2625732421875,78.13125610351562
1659026353529031000,7.567031005859375,-252.78750610351562,1113.1500244140625,78.82500457763672
1659026353539031000,7.577031005859375,-252.8625030517578,1113.112548828125,79.25625610351562
1659026353549031000,7.587031005859375,-252.97500610351562,1113.1500244140625,79.96875
1659026353559031000,7.597031005859375,-253.21876525878906,1112.925048828125,80.41875457763672
1659026353569031000,7.607031005859375,-253.1437530517578,1112.5875244140625,80.8125
1659026353579031000,7.617031005859375,-252.93751525878906,1112.268798828125,80.92500305175781
1659026353589031000,7.627031005859375,-252.69375610351562,1112.0250244140625,81.2437515258789
1659026353599031000,7.637031005859375,-252.05625915527344,1112.00634765625,81.69375610351562
1659026353609031000,7.647031005859375,-251.70001220703125,1111.91259765625,81.67500305175781
1659026353619031000,7.657031005859375,-251.11875915527344,1111.612548828125,81.95625305175781
1659026353629031000,7.667031005859375,-250.81875610351562,1111.425048828125,82.14375305175781
1659026353639031000,7.677031005859375,-250.44375610351562,1111.3687744140625,82.5562515258789
1659026353649031000,7.687031005859375,-250.25625610351562,1111.3875732421875,83.10000610351562
1659026353659031000,7.697031005859375,-250.12501525878906,1111.1812744140625,83.73750305175781
1659026353669031000,7.707031005859375,-249.75001525878906,1111.06884765625,84.48750305175781
1659026353679031000,7.717031005859375,-249.8625030517578,1110.862548828125,84.91875457763672
1659026353689031000,7.727031005859375,-249.61875915527344,1110.46875,85.95000457763672
1659026353699031000,7.737031005859375,-249.91876220703125,1110.13134765625,86.625
1659026353709031000,7.747031005859375,-250.03126525878906,1109.7938232421875,87.0562515258789
1659026353719031000,7.757031005859375,-250.03126525878906,1109.6063232421875,87.63750457763672
1659026353729031000,7.767031005859375,-249.97500610351562,1109.15625,88.25625610351562
1659026353739031000,7.777031005859375,-250.06875610351562,1108.800048828125,88.91250610351562
1659026353749031000,7.787031005859375,-250.40626525878906,1108.40625,89.17500305175781
1659026353759031000,7.797031005859375,-250.35000610351562,1107.69384765625,89.66250610351562
1659026353769031000,7.807031005859375,-250.44375610351562,1107.393798828125,89.90625
1659026353779031000,7.817031005859375,-250.18125915527344,1107.0562744140625,90.26250457763672
1659026353789031000,7.827031005859375,-250.29376220703125,1106.4937744140625,90.58125305175781
1659026353799031000,7.837031005859375,-250.2375030517578,1105.8375244140625,90.63750457763672
1659026353809031000,7.847031005859375,-250.46250915527344,1105.4625244140625,90.58125305175781
1659026353819031000,7.857031005859375,-250.35000610351562,1105.03125,90.60000610351562
1659026353829031000,7.867031005859375,-250.0500030517578,1104.5250244140625,90.75
1659026353839031000,7.877031005859375,-250.06875610351562,1104.4500732421875,90.8062515258789
1659026353849031000,7.887031005859375,-250.08750915527344,1104.22509765625,90.84375
1659026353859031000,7.897031005859375,-250.38751220703125,1103.71875,90.91875457763672
1659026353869031000,7.907031005859375,-250.27500915527344,1103.4375,90.97500610351562
1659026353879031000,7.917031005859375,-250.12501525878906,1103.00634765625,91.2750015258789
1659026353889031000,7.927031005859375,-249.75001525878906,1102.53759765625,91.44375610351562
1659026353899031000,7.937031005859375,-249.73126220703125,1102.3687744140625,91.53750610351562
1659026353909031000,7.947031005859375,-249.90000915527344,1101.9188232421875,91.95000457763672
1659026353919031000,7.957031005859375,-249.7687530517578,1101.1500244140625,92.25
1659026353929031000,7.967031005859375,-249.60000610351562,1100.53125,92.53125
1659026353939031000,7.977031005859375,-249.22500610351562,1100.3250732421875,92.92500305175781
1659026353949031000,7.987031005859375,-248.9250030517578,1100.00634765625,93.20625305175781
1659026353959031000,7.997031005859375,-248.94375610351562,1099.6500244140625,93.5250015258789
1659026353969031000,8.007031005859375,-248.98126220703125,1099.3687744140625,94.10625457763672
1659026353979031000,8.017031005859375,-248.75625610351562,1098.65625,94.57500457763672
1659026353989031000,8.027031005859374,-248.4562530517578,1098.675048828125,94.72500610351562
1659026353999031000,8.037031005859374,-248.47500610351562,1098.50634765625,94.80000305175781
1659026354009031000,8.047031005859376,-248.62501525878906,1098.0750732421875,95.00625610351562
1659026354019031000,8.057031005859375,-248.68125915527344,1097.71875,94.9312515258789
1659026354029031000,8.067031005859375,-248.62501525878906,1097.362548828125,95.1187515258789
1659026354039031000,8.077031005859375,-248.5500030517578,1097.0625,95.19375610351562
1659026354049031000,8.087031005859375,-248.58750915527344,1096.6688232421875,94.78125
1659026354059031000,8.097031005859375,-248.60626220703125,1096.518798828125,94.6500015258789
1659026354069031000,8.107031005859374,-248.81251525878906,1095.84375,94.48125457763672
1659026354079031000,8.117031005859374,-248.71876525878906,1095.4500732421875,94.5562515258789
1659026354089031000,8.127031005859376,-248.6437530517578,1095.2625732421875,94.21875
1659026354099031000,8.137031005859376,-248.7375030517578,1094.7000732421875,94.06875610351562
1659026354109031000,8.147031005859375,-248.90626525878906,1094.3062744140625,93.84375
1659026354119031000,8.157031005859375,-248.85000610351562,1093.96875,93.3375015258789
1659026354129031000,8.167031005859375,-248.4562530517578,1093.6875,93.20625305175781
1659026354139031000,8.177031005859375,-248.34376525878906,1093.25634765625,92.94375610351562
1659026354149031000,8.187031005859374,-248.38125610351562,1092.862548828125,92.79375457763672
1659026354159031000,8.197031005859374,-248.43751525878906,1092.65625,92.51250457763672
1659026354169031000,8.207031005859376,-248.38125610351562,1092.22509765625,92.45625305175781
1659026354179031000,8.217031005859376,-248.15626525878906,1091.90625,92.3062515258789
1659026354189031000,8.227031005859375,-248.2687530517578,1091.5875244140625,92.08125305175781
1659026354199031000,8.237031005859375,-248.34376525878906,1091.19384765625,92.00625610351562
1659026354209031000,8.247031005859375,-248.47500610351562,1090.6875,91.85625457763672
1659026354219031000,8.257031005859375,-248.60626220703125,1090.4813232421875,91.59375
1659026354229031000,8.267031005859375,-248.47500610351562,1090.25634765625,91.53750610351562
1659026354239031000,8.277031005859374,-248.5500030517578,1089.9000244140625,91.16250610351562
1659026354249031000,8.287031005859374,-248.4562530517578,1089.65625,90.9937515258789
1659026354259031000,8.297031005859376,-248.49375915527344,1089.50634765625,90.63750457763672
1659026354269031000,8.307031005859375,-248.41876220703125,1089.112548828125,90.31875610351562
1659026354279031000,8.317031005859375,-248.41876220703125,1088.925048828125,90.16875457763672
1659026354289031000,8.327031005859375,-248.71876525878906,1088.7938232421875,89.71875
1659026354299031000,8.337031005859375,-248.98126220703125,1088.3250732421875,89.4000015258789
1659026354309031000,8.347031005859375,-249.16876220703125,1088.0438232421875,88.66875457763672
1659026354319031000,8.357031005859374,-249.2062530517578,1087.706298828125,88.20000457763672
1659026354329031000,8.367031005859374,-249.4875030517578,1087.425048828125,87.5625
1659026354339031000,8.377031005859376,-249.63751220703125,1087.25634765625,87.2437515258789
1659026354349031000,8.387031005859376,-249.73126220703125,1087.0125732421875,86.7750015258789
1659026354359031000,8.397031005859375,-249.8625030517578,1086.7125244140625,86.04375457763672
1659026354369031000,8.407031005859375,-249.73126220703125,1086.6187744140625,85.51875305175781
1659026354379031000,8.417031005859375,-249.7687530517578,1086.5250244140625,84.88125610351562
1659026354389031000,8.427031005859375,-249.71250915527344,1086.46875,84.67500305175781
1659026354399031000,8.437031005859374,-249.50625610351562,1086.3375244140625,84.39375305175781
1659026354409031000,8.447031005859374,-249.50625610351562,1086.0562744140625,83.88750457763672
1659026354419031000,8.457031005859376,-249.6750030517578,1085.71875,83.08125305175781
1659026354429031000,8.467031005859376,-249.5812530517578,1085.7000732421875,82.76250457763672
1659026354439031000,8.477031005859375,-249.78750610351562,1085.53125,82.4625015258789
1659026354449031000,8.487031005859375,-249.78750610351562,1085.362548828125,82.10625457763672
1659026354459031000,8.497031005859375,-249.78750610351562,1085.175048828125,81.67500305175781
1659026354469031000,8.507031005859375,-249.7687530517578,1084.7625732421875,81.01875305175781
1659026354479031000,8.517031005859375,-249.46876525878906,1084.612548828125,80.625
1659026354489031000,8.527031005859374,-249.31875610351562,1084.6875,80.45625305175781
1659026354499031000,8.537031005859374,-249.09376525878906,1084.59375,80.4375
1659026354509031000,8.547031005859376,-249.03750610351562,1084.4625244140625,79.95000457763672
1659026354519031000,8.557031005859375,-248.9250030517578,1084.237548828125,79.63125610351562
1659026354529031000,8.567031005859375,-248.96250915527344,1083.9188232421875,79.33125305175781
1659026354539031000,8.577031005859375,-248.79376220703125,1083.9937744140625,79.29375457763672
1659026354549031000,8.587031005859375,-248.85000610351562,1084.1063232421875,79.21875
1659026354559031000,8.597031005859375,-249.43125915527344,1084.03125,78.88125610351562
1659026354569031000,8.607031005859374,-249.60000610351562,1083.78759765625,78.4312515258789
1659026354579031000,8.617031005859374,-249.63751220703125,1083.581298828125,78.2437515258789
1659026354589031000,8.627031005859376,-249.88125610351562,1083.375,78.1500015258789
1659026354599031000,8.637031005859376,-249.78750610351562,1083.31884765625,77.9625015258789
1659026354609031000,8.647031005859375,-249.84376525878906,1083.206298828125,77.7750015258789
1659026354619031000,8.657031005859375,-249.9562530517578,1082.85009765625,77.45625305175781
1659026354629031000,8.667031005859375,-249.8625030517578,1082.28759765625,77.1187515258789
1659026354639031000,8.677031005859375,-249.60000610351562,1082.19384765625,76.89375305175781
1659026354649031000,8.687031005859374,-249.26251220703125,1082.175048828125,76.5562515258789
1659026354659031000,8.697031005859374,-249.00001525878906,1082.15625,75.95625305175781
1659026354669031000,8.707031005859376,-248.60626220703125,1081.7625732421875,75.30000305175781
1659026354679031000,8.717031005859376,-248.66250610351562,1081.6688232421875,74.9625015258789
1659026354689031000,8.727031005859375,-248.66250610351562,1081.5562744140625,74.34375
1659026354699031000,8.737031005859375,-248.60626220703125,1081.4625244140625,73.9312515258789
1659026354709031000,8.747031005859375,-248.43751525878906,1081.5562744140625,73.51875305175781
1659026354719031000,8.757031005859375,-248.41876220703125,1081.2750244140625,73.03125
1659026354729031000,8.767031005859375,-248.70001220703125,1080.97509765625,72.82500457763672
1659026354739031000,8.777031005859374,-248.9250030517578,1080.75,72.26250457763672
1659026354749031000,8.787031005859374,-248.94375610351562,1081.1063232421875,72.13125610351562
1659026354759031000,8.797031005859376,-248.8312530517578,1081.1812744140625,71.55000305175781
1659026354769031000,8.807031005859375,-248.9250030517578,1081.25634765625,71.23125457763672
1659026354779031000,8.817031005859375,-248.8312530517578,1081.3125,70.81875610351562
1659026354789031000,8.827031005859375,-249.05625915527344,1081.3875732421875,70.51875305175781
1659026354799031000,8.837031005859375,-249.05625915527344,1081.4813232421875,70.21875
1659026354809031000,8.847031005859375,-248.94375610351562,1081.78125,69.6187515258789
1659026354819031000,8.857031005859374,-248.9250030517578,1081.893798828125,69.41250610351562
1659026354829031000,8.867031005859374,-248.98126220703125,1081.8563232421875,68.83125305175781
1659026354839031000,8.877031005859376,-249.00001525878906,1081.9312744140625,68.51250457763672
1659026354849031000,8.887031005859376,-248.71876525878906,1081.7437744140625,68.10000610351562
1659026354859031000,8.897031005859375,-248.79376220703125,1081.875,67.3687515258789
1659026354869031000,8.907031005859375,-248.51251220703125,1082.0438232421875,66.58125305175781
1659026354879031000,8.917031005859375,-248.49375915527344,1082.34375,65.88750457763672
1659026354889031000,8.927031005859375,-248.47500610351562,1082.456298828125,65.4000015258789
1659026354899031000,8.937031005859374,-248.41876220703125,1082.66259765625,64.89375305175781
1659026354909031000,8.947031005859374,-248.77500915527344,1082.7938232421875,64.5562515258789
1659026354919031000,8.957031005859376,-248.88751220703125,1082.8875732421875,63.993751525878906
1659026354929031000,8.967031005859376,-249.07501220703125,1083.5625,63.431251525878906
1659026354939031000,8.977031005859375,-249.1125030517578,1083.7313232421875,63.093753814697266
1659026354949031000,8.987031005859375,-249.24375915527344,1084.1063232421875,62.83125305175781
1659026354959031000,8.997031005859375,-249.41250610351562,1084.5,62.400001525878906
1659026354969031000,9.007031005859375,-249.65626525878906,1084.875,61.76250076293945
1659026354979031000,9.017031005859375,-249.84376525878906,1085.550048828125,61.312503814697266
1659026354989031000,9.027031005859374,-249.54376220703125,1086.03759765625,60.750003814697266
1659026354999031000,9.037031005859374,-249.73126220703125,1086.5625,60.41250228881836
1659026355009031000,9.047031005859376,-249.7687530517578,1087.03125,59.94375228881836
1659026355019031000,9.057031005859375,-249.60000610351562,1087.875,59.41875076293945
1659026355029031000,9.067031005859375,-250.01251220703125,1088.5875244140625,58.81875228881836
1659026355039031000,9.077031005859375,-249.97500610351562,1089.0750732421875,58.462501525878906
1659026355049031000,9.087031005859375,-249.90000915527344,1089.60009765625,58.312503814697266
1659026355059031000,9.097031005859375,-249.9562530517578,1090.0125732421875,57.82500076293945
1659026355069031000,9.107031005859374,-250.2375030517578,1090.6500244140625,57.54375076293945
1659026355079031000,9.117031005859374,-250.18125915527344,1091.268798828125,57.13125228881836
1659026355089031000,9.127031005859376,-250.3312530517578,1091.94384765625,57.000003814697266
1659026355099031000,9.137031005859376,-250.55625915527344,1092.4312744140625,56.868751525878906
1659026355109031000,9.147031005859375,-250.5187530517578,1092.9375,56.812503814697266
1659026355119031000,9.157031005859375,-250.96876525878906,1093.518798828125,56.56875228881836
1659026355129031000,9.167031005859375,-251.30625915527344,1094.1375732421875,56.343753814697266
1659026355139031000,9.177031005859375,-251.71876525878906,1094.7750244140625,56.55000305175781
1659026355149031000,9.187031005859374,-252.05625915527344,1095.3375244140625,56.55000305175781
1659026355159031000,9.197031005859374,-252.37501525878906,1096.1063232421875,56.75625228881836
1659026355169031000,9.207031005859376,-252.63751220703125,1096.6500244140625,56.906253814697266
1659026355179031000,9.217031005859376,-253.2375030517578,1097.25,57.187503814697266
1659026355189031000,9.227031005859375,-253.38751220703125,1097.7000732421875,57.562503814697266
1659026355199031000,9.237031005859375,-253.36875915527344,1098.22509765625,58.125003814697266
1659026355209031000,9.247031005859375,-253.63125610351562,1098.9188232421875,58.72500228881836
1659026355219031000,9.257031005859375,-253.63125610351562,1099.40625,58.98750305175781
1659026355229031000,9.267031005859375,-253.72500610351562,1099.987548828125,59.75625228881836
1659026355239031000,9.277031005859374,-253.8937530517578,1100.2313232421875,60.243751525878906
1659026355249031000,9.287031005859374,-253.9875030517578,1100.56884765625,60.88125228881836
1659026355259031000,9.297031005859376,-254.10000610351562,1101.0562744140625,61.406253814697266
1659026355269031000,9.307031005859375,-254.10000610351562,1101.5625,61.968753814697266
1659026355279031000,9.317031005859375,-254.25001525878906,1101.7125244140625,62.41875076293945
1659026355289031000,9.327031005859375,-254.28750610351562,1101.8062744140625,62.775001525878906
1659026355299031000,9.337031005859375,-254.10000610351562,1101.956298828125,63.31875228881836
1659026355309031000,9.347031005859375,-254.06251525878906,1102.2000732421875,63.45000076293945
1659026355319031000,9.357031005859374,-253.91250610351562,1102.5750732421875,63.82500076293945
1659026355329031000,9.367031005859374,-253.74375915527344,1102.7625732421875,64.06875610351562
1659026355339031000,9.377031005859376,-253.29376220703125,1102.518798828125,64.16250610351562
1659026355349031000,9.387031005859376,-253.31251525878906,1102.5562744140625,64.3687515258789
1659026355359031000,9.397031005859375,-253.08750915527344,1102.59375,64.5
1659026355369031000,9.407031005859375,-252.78750610351562,1102.518798828125,64.72500610351562
1659026355379031000,9.417031005859375,-252.88125610351562,1102.5,65.08125305175781
1659026355389031000,9.427031005859375,-252.71250915527344,1102.2938232421875,65.26875305175781
1659026355399031000,9.437031005859374,-252.5812530517578,1101.9375,65.51250457763672
1659026355409031000,9.447031005859374,-252.45001220703125,1101.69384765625,65.5875015258789
1659026355419031000,9.457031005859376,-252.41250610351562,1101.675048828125,65.79375457763672
1659026355429031000,9.467031005859376,-252.24375915527344,1101.3563232421875,65.66250610351562
1659026355439031000,9.477031005859375,-252.00001525878906,1101.31884765625,65.8125
1659026355449031000,9.487031005859375,-251.71876525878906,1101.300048828125,65.90625
1659026355459031000,9.497031005859375,-251.40000915527344,1101.1500244140625,65.83125305175781
1659026355469031000,9.507031005859375,-251.02500915527344,1101.03759765625,65.79375457763672
1659026355479031000,9.517031005859375,-250.78126525878906,1101.112548828125,65.6812515258789
1659026355489031000,9.527031005859374,-250.4250030517578,1101.13134765625,65.36250305175781
1659026355499031000,9.537031005859374,-250.18125915527344,1100.94384765625,65.28750610351562
1659026355509031000,9.547031005859376,-249.9562530517578,1100.9625244140625,65.45625305175781
1659026355519031000,9.557031005859375,-249.88125610351562,1100.94384765625,65.36250305175781
1659026355529031000,9.567031005859375,-249.88125610351562,1101.018798828125,65.17500305175781
1659026355539031000,9.577031005859375,-249.90000915527344,1101.09375,65.25
1659026355549031000,9.587031005859375,-249.93751525878906,1101.1875,65.0250015258789
1659026355559031000,9.597031005859375,-249.69375610351562,1101.1688232421875,64.76250457763672
1659026355569031000,9.607031005859374,-249.75001525878906,1101,64.95000457763672
1659026355579031000,9.617031005859374,-249.63751220703125,1101.206298828125,64.98750305175781
1659026355589031000,9.627031005859376,-249.45001220703125,1101.300048828125,64.66875457763672
1659026355599031000,9.637031005859376,-249.31875610351562,1101.41259765625,64.44375610351562
1659026355609031000,9.647031005859375,-249.3000030517578,1101.393798828125,64.2750015258789
1659026355619031000,9.657031005859375,-249.13125610351562,1101.28125,63.95625305175781
1659026355629031000,9.667031005859375,-249.0187530517578,1101.393798828125,64.01250457763672
1659026355639031000,9.677031005859375,-249.26251220703125,1101.41259765625,63.900001525878906
1659026355649031000,9.687031005859374,-249.07501220703125,1101.675048828125,63.69375228881836
1659026355659031000,9.697031005859374,-249.15000915527344,1102.03125,63.618751525878906
1659026355669031000,9.707031005859376,-249.41250610351562,1102.21875,63.806251525878906
1659026355679031000,9.717031005859376,-249.71250915527344,1102.59375,63.86250305175781
1659026355689031000,9.727031005859375,-249.5812530517578,1102.9312744140625,63.95625305175781
1659026355699031000,9.737031005859375,-249.8625030517578,1103.4937744140625,63.900001525878906
1659026355709031000,9.747031005859375,-250.10626220703125,1103.75634765625,63.86250305175781
1659026355719031000,9.757031005859375,-250.12501525878906,1104.0562744140625,63.86250305175781
1659026355729031000,9.767031005859375,-250.36875915527344,1104.4500732421875,63.88125228881836
1659026355739031000,9.777031005859374,-250.20001220703125,1104.6375732421875,63.91875076293945
1659026355749031000,9.787031005859374,-250.35000610351562,1104.9375,63.86250305175781
1659026355759031000,9.797031005859376,-250.50001525878906,1105.3125,63.82500076293945
1659026355769031000,9.807031005859375,-250.81875610351562,1105.4813232421875,63.91875076293945
1659026355779031000,9.817031005859375,-250.81875610351562,1105.7625732421875,63.97500228881836
1659026355789031000,9.827031005859375,-250.85626220703125,1105.81884765625,63.82500076293945
1659026355799031000,9.837031005859375,-251.00625610351562,1106.1375732421875,63.95625305175781
1659026355809031000,9.847031005859375,-251.25001525878906,1106.25,64.2750015258789
1659026355819031000,9.857031005859374,-251.60626220703125,1106.4375,64.48125457763672
1659026355829031000,9.867031005859374,-251.86875915527344,1106.7000732421875,64.63125610351562
1659026355839031000,9.877031005859376,-251.62501525878906,1106.643798828125,65.0250015258789
1659026355849031000,9.887031005859376,-251.79376220703125,1106.9625244140625,65.32500457763672
1659026355859031000,9.897031005859375,-252.15000915527344,1107.31884765625,65.75625610351562
1659026355869031000,9.907031005859375,-252.35626220703125,1107.6187744140625,66.35625457763672
1659026355879031000,9.917031005859375,-252.4875030517578,1107.97509765625,66.82500457763672
1659026355889031000,9.927031005859375,-252.82501220703125,1108.331298828125,67.25625610351562
1659026355899031000,9.937031005859374,-253.25625610351562,1108.63134765625,67.4625015258789
1659026355909031000,9.947031005859374,-253.46250915527344,1108.8563232421875,68.00625610351562
1659026355919031000,9.957031005859376,-254.04376220703125,1109.0250244140625,68.45625305175781
1659026355929031000,9.967031005859376,-254.13751220703125,1109.10009765625,68.88750457763672
1659026355939031000,9.977031005859375,-254.49375915527344,1109.0438232421875,69.0562515258789
1659026355949031000,9.987031005859375,-254.68125915527344,1109.3062744140625,69.31875610351562
1659026355959031000,9.997031005859375,-255.00001525878906,1109.28759765625,69.58125305175781
1659026355969031000,10.007031005859375,-255.07501220703125,1109.1187744140625,69.6187515258789
1659026355979031000,10.017031005859375,-255.05625915527344,1108.81884765625,69.75
1659026355989031000,10.027031005859374,-255.26251220703125,1108.987548828125,69.78750610351562
1659026355999031000,10.037031005859374,-255.37501525878906,1109.10009765625,69.63750457763672
1659026356009031000,10.047031005859376,-255.41250610351562,1109.25,69.63750457763672
1659026356019031000,10.057031005859375,-255.24375915527344,1109.5125732421875,69.69375610351562
1659026356029031000,10.067031005859375,-255.31875610351562,1109.66259765625,69.63750457763672
1659026356039031000,10.077031005859375,-255.24375915527344,1109.737548828125,69.78750610351562
1659026356049031000,10.087031005859375,-255.2062530517578,1109.831298828125,69.86250305175781
1659026356059031000,10.097031005859375,-255.00001525878906,1109.9625244140625,69.9000015258789
1659026356069031000,10.107031005859374,-254.86875915527344,1109.8125,69.84375
1659026356079031000,10.117031005859374,-254.68125915527344,1109.85009765625,69.9375
1659026356089031000,10.127031005859376,-254.75625610351562,1109.7750244140625,70.01250457763672
1659026356099031000,10.137031005859376,-254.58750915527344,1109.6812744140625,70.14375305175781
1659026356109031000,10.147031005859375,-254.41876220703125,1109.53125,70.38750457763672
1659026356119031000,10.157031005859375,-254.47500610351562,1109.737548828125,70.25625610351562
1659026356129031000,10.167031005859375,-254.5500030517578,1109.625,70.14375305175781
1659026356139031000,10.177031005859375,-254.71876525878906,1109.7938232421875,70.25625610351562
1659026356149031000,10.187031005859374,-254.43751525878906,1109.85009765625,70.3687515258789
1659026356159031000,10.197031005859374,-254.56875610351562,1109.7938232421875,70.40625
1659026356169031000,10.207031005859376,-254.43751525878906,1109.7750244140625,70.4625015258789
1659026356179031000,10.217031005859376,-254.49375915527344,1109.75634765625,70.44375610351562
1659026356189031000,10.227031005859375,-254.62501525878906,1109.7938232421875,70.53750610351562
1659026356199031000,10.237031005859375,-254.5500030517578,1109.5125732421875,70.875
1659026356209031000,10.247031005859375,-254.4562530517578,1109.7000732421875,71.25
1659026356219031000,10.257031005859375,-254.6437530517578,1109.5875244140625,71.34375
1659026356229031000,10.267031005859375,-254.75625610351562,1109.8125,71.6812515258789
1659026356239031000,10.277031005859374,-254.4562530517578,1109.94384765625,72.0562515258789
1659026356249031000,10.287031005859374,-254.47500610351562,1109.9625244140625,72.30000305175781
1659026356259031000,10.297031005859376,-254.60626220703125,1109.9625244140625,72.41250610351562
1659026356269031000,10.307031005859375,-254.6437530517578,1109.8875732421875,72.41250610351562
1659026356279031000,10.317031005859375,-254.77500915527344,1109.94384765625,72.50625610351562
1659026356289031000,10.327031005859375,-254.79376220703125,1109.737548828125,72.6187515258789
1659026356299031000,10.337031005859375,-254.56875610351562,1109.9625244140625,72.78750610351562
1659026356309031000,10.347031005859375,-254.41876220703125,1109.6812744140625,72.91875457763672
1659026356319031000,10.357031005859374,-254.49375915527344,1109.53125,73.125
1659026356329031000,10.367031005859374,-254.71876525878906,1109.5125732421875,73.03125
1659026356339031000,10.377031005859376,-254.68125915527344,1109.3062744140625,73.51875305175781
1659026356349031000,10.387031005859376,-254.71876525878906,1109.0625,73.66875457763672
1659026356359031000,10.397031005859375,-254.62501525878906,1109.0250244140625,73.80000305175781
1659026356369031000,10.407031005859375,-254.66250610351562,1109.1187744140625,73.78125
1659026356379031000,10.417031005859375,-254.86875915527344,1108.8375244140625,73.95000457763672
1659026356389031000,10.427031005859375,-254.85000610351562,1108.7625732421875,73.6500015258789
1659026356399031000,10.437031005859374,-254.96250915527344,1108.96875,73.59375
1659026356409031000,10.447031005859374,-254.66250610351562,1108.91259765625,73.6875
1659026356419031000,10.457031005859376,-254.34376525878906,1109.0438232421875,73.4625015258789
1659026356429031000,10.467031005859376,-254.43751525878906,1109.3250732421875,73.48125457763672
1659026356439031000,10.477031005859375,-254.41876220703125,1109.4000244140625,73.25625610351562
1659026356449031000,10.487031005859375,-254.49375915527344,1109.4375,73.40625
1659026356459031000,10.497031005859375,-254.28750610351562,1109.550048828125,73.42500305175781
1659026356469031000,10.507031005859375,-254.41876220703125,1109.56884765625,73.59375
1659026356479031000,10.517031005859375,-254.43751525878906,1109.34375,73.72500610351562
1659026356489031000,10.527031005859374,-254.58750915527344,1109.19384765625,73.9312515258789
1659026356499031000,10.537031005859374,-255.0187530517578,1109.175048828125,74.08125305175781
1659026356509031000,10.547031005859376,-254.62501525878906,1109.10009765625,74.13750457763672
1659026356519031000,10.557031005859375,-254.49375915527344,1109.1375732421875,74.3062515258789
1659026356529031000,10.567031005859375,-254.32501220703125,1108.9312744140625,74.15625
1659026356539031000,10.577031005859375,-254.40000915527344,1108.800048828125,74.19375610351562
1659026356549031000,10.587031005859375,-254.40000915527344,1108.9312744140625,74.15625
1659026356559031000,10.597031005859375,-254.58750915527344,1108.800048828125,73.8375015258789
1659026356569031000,10.607031005859374,-254.5500030517578,1108.9312744140625,73.5
1659026356579031000,10.617031005859374,-254.32501220703125,1108.9312744140625,73.4625015258789
1659026356589031000,10.627031005859376,-254.62501525878906,1109.1187744140625,73.40625
1659026356599031000,10.637031005859376,-254.81251525878906,1108.91259765625,73.33125305175781
1659026356609031000,10.647031005859375,-254.68125915527344,1109.2313232421875,73.23750305175781
1659026356619031000,10.657031005859375,-254.62501525878906,1109.1375732421875,73.0875015258789
1659026356629031000,10.667031005859375,-254.53126525878906,1108.9312744140625,72.82500457763672
1659026356639031000,10.677031005859375,-254.41876220703125,1109.0438232421875,73.03125
1659026356649031000,10.687031005859374,-254.41876220703125,1108.96875,73.14375305175781
1659026356659031000,10.697031005859374,-254.32501220703125,1108.800048828125,72.84375
1659026356669031000,10.707031005859376,-254.19375610351562,1108.706298828125,72.84375
1659026356679031000,10.717031005859376,-254.00625610351562,1108.5562744140625,72.73125457763672
1659026356689031000,10.727031005859375,-254.15626525878906,1108.25634765625,72.82500457763672
1659026356699031000,10.737031005859375,-253.93125915527344,1108.40625,73.01250457763672
1659026356709031000,10.747031005859375,-254.25001525878906,1108.5,73.20000457763672
1659026356719031000,10.757031005859375,-254.21250915527344,1108.331298828125,73.0875015258789
1659026356729031000,10.767031005859375,-254.3625030517578,1108.4813232421875,73.01250457763672
1659026356739031000,10.777031005859374,-254.60626220703125,1108.40625,73.16250610351562
1659026356749031000,10.787031005859374,-254.58750915527344,1108.331298828125,73.0875015258789
1659026356759031000,10.797031005859376,-254.58750915527344,1108.612548828125,73.23750305175781
1659026356769031000,10.807031005859375,-254.66250610351562,1108.5562744140625,73.21875
1659026356779031000,10.817031005859375,-254.7375030517578,1108.35009765625,72.9937515258789
1659026356789031000,10.827031005859375,-254.85000610351562,1108.2750244140625,73.0875015258789
1659026356799031000,10.837031005859375,-255.0187530517578,1108.44384765625,73.10625457763672
1659026356809031000,10.847031005859375,-254.90626525878906,1108.3125,72.95625305175781
1659026356819031000,10.857031005859374,-254.86875915527344,1108.5562744140625,73.06875610351562
1659026356829031000,10.867031005859374,-254.98126220703125,1108.4813232421875,73.06875610351562
1659026356839031000,10.877031005859376,-255.05625915527344,1108.518798828125,73.05000305175781
1659026356849031000,10.887031005859376,-254.79376220703125,1108.72509765625,73.29375457763672
1659026356859031000,10.897031005859375,-254.90626525878906,1108.893798828125,73.53750610351562
1659026356869031000,10.907031005859375,-254.68125915527344,1108.91259765625,73.35000610351562
1659026356879031000,10.917031005859375,-254.43751525878906,1108.8375244140625,73.2750015258789
1659026356889031000,10.927031005859375,-254.38125610351562,1108.81884765625,73.33125305175781
1659026356899031000,10.937031005859374,-254.1750030517578,1108.7437744140625,73.40625
1659026356909031000,10.947031005859374,-253.91250610351562,1108.893798828125,73.5562515258789
1659026356919031000,10.957031005859376,-253.85626220703125,1108.6500244140625,73.5
1659026356929031000,10.967031005859376,-253.8000030517578,1108.63134765625,73.42500305175781
1659026356939031000,10.977031005859375,-253.85626220703125,1108.53759765625,73.48125457763672
1659026356949031000,10.987031005859375,-253.76251220703125,1108.5,73.6500015258789
1659026356959031000,10.997031005859375,-253.8000030517578,1108.4625244140625,73.98750305175781
1659026356969031000,11.007031005859375,-253.96876525878906,1108.425048828125,74.25
1659026356979031000,11.017031005859375,-254.04376220703125,1108.44384765625,74.26875305175781
1659026356989031000,11.027031005859374,-253.91250610351562,1108.1063232421875,74.55000305175781
1659026356999031000,11.037031005859374,-253.81875610351562,1108.050048828125,75.03750610351562
1659026357009031000,11.047031005859376,-253.96876525878906,1107.9937744140625,75.65625
1659026357019031000,11.057031005859375,-253.87501525878906,1107.8250732421875,75.97500610351562
1659026357029031000,11.067031005859375,-253.93125915527344,1107.675048828125,76.44375610351562
1659026357039031000,11.077031005859375,-253.85626220703125,1107.60009765625,76.70625305175781
1659026357049031000,11.087031005859375,-253.6125030517578,1107.6187744140625,77.19375610351562
1659026357059031000,11.097031005859375,-253.74375915527344,1107.4312744140625,77.60625457763672
1659026357069031000,11.107031005859374,-254.38125610351562,1107.65625,77.60625457763672
1659026357079031000,11.117031005859374,-254.58750915527344,1107.956298828125,77.70000457763672
1659026357089031000,11.127031005859376,-254.85000610351562,1108.16259765625,77.4375
