time,seconds_elapsed,z,y,x
1659103341374665000,0.0486650390625,0,0,0
1659103341384336000,0.0583359375,0.00119781494140625,-0.0018569529056549072,-0.005414463579654694
1659103341394006800,0.0680068359375,0.0007991790771484375,0.0027038902044296265,-0.0036722905933856964
1659103341403677700,0.077677734375,0.0014972686767578125,0.006507962942123413,-0.0028207823634147644
1659103341413348900,0.087348876953125,0.002155303955078125,0.010919049382209778,0.010138198733329773
1659103341423019800,0.097019775390625,-0.005184173583984375,-0.008830234408378601,-0.009572196751832962
1659103341432690700,0.106690673828125,-0.00547027587890625,-0.0065012723207473755,-0.0073054879903793335
1659103341442361600,0.116361572265625,0.00044727325439453125,-0.004674643278121948,0.006092380732297897
1659103341452032500,0.126032470703125,-0.0017271041870117188,-0.004239946603775024,0.011769481003284454
1659103341461703400,0.135703369140625,0.0005970001220703125,-0.01779577136039734,-0.009893905371427536
1659103341471374300,0.145374267578125,0.0059814453125,-0.01287020742893219,0.009494353085756302
1659103341481045500,0.15504541015625,-0.00000286102294921875,-0.007392436265945435,-0.004565902054309845
1659103341490716400,0.16471630859375,-0.005523681640625,-0.015667110681533813,-0.005375608801841736
1659103341500387300,0.17438720703125,0.0026464462280273438,-0.008921042084693909,-0.006132621318101883
1659103341510058200,0.184058349609375,-0.0042285919189453125,-0.010595262050628662,0.014317456632852554
1659103341519729200,0.193729248046875,-0.0073299407958984375,-0.01445499062538147,0.004419844597578049
1659103341529400000,0.203400146484375,-0.0035181045532226562,0.015582084655761719,-0.007158156484365463
1659103341539071000,0.213071044921875,-0.0044536590576171875,0.00798274576663971,0.00109061598777771
1659103341548742000,0.222741943359375,-0.0030841827392578125,0.009766459465026855,-0.0024786368012428284
1659103341558412800,0.232412841796875,-0.0006561279296875,-0.0009871721267700195,-0.011505629867315292
1659103341568084000,0.242083984375,0.00165557861328125,-0.0033099502325057983,0.00037962570786476135
1659103341577755000,0.2517548828125,0.008431434631347656,0.00028605759143829346,-0.005487080663442612
1659103341587425800,0.26142578125,0.004631996154785156,-0.0043675899505615234,0.001532912254333496
1659103341597096700,0.2710966796875,-0.0035867691040039062,-0.005368068814277649,-0.006641320884227753
1659103341606767600,0.280767578125,0.01723003387451172,-0.016619592905044556,-0.0018118396401405334
1659103341616438500,0.2904384765625,0.016565322875976562,-0.01248207688331604,-0.006401989609003067
1659103341626109700,0.300109619140625,0.004429817199707031,-0.0050879716873168945,-0.008528091013431549
1659103341635780600,0.309780517578125,0.005425453186035156,0.004314526915550232,-0.007101032882928848
1659103341645451500,0.319451416015625,0.008702278137207031,-0.001562550663948059,0.006975781172513962
1659103341655122400,0.329122314453125,0.0026292800903320312,0.012359365820884705,-0.002567574381828308
1659103341664793300,0.33879345703125,0.0002307891845703125,0.001475512981414795,-0.004888348281383514
1659103341674464300,0.34846435546875,0.00138092041015625,-0.010141372680664062,0.013722065836191177
1659103341684135400,0.358135498046875,0.004818916320800781,0.006427466869354248,0.01205860823392868
1659103341693806300,0.367806396484375,-0.00577545166015625,-0.0007377862930297852,-0.002290874719619751
1659103341703477200,0.377477294921875,-0.0021238327026367188,0.012087032198905945,0.001229163259267807
1659103341713148200,0.387148193359375,0.0025854110717773438,0.008337646722793579,-0.0000826418399810791
1659103341722819000,0.396819091796875,0.0036792755126953125,0.0034755468368530273,-0.00016750767827033997
1659103341732490000,0.406489990234375,0.0024175643920898438,-0.0036139488220214844,-0.00601789727807045
1659103341742161000,0.416160888671875,0.001190185546875,-0.004723682999610901,-0.010613076388835907
1659103341751832000,0.42583203125,-0.0011720657348632812,-0.012835964560508728,-0.011544458568096161
1659103341761503000,0.4355029296875,-0.008144378662109375,-0.007919177412986755,0.0026840902864933014
1659103341771174000,0.445173828125,0.001392364501953125,0.003940001130104065,0.009568583220243454
1659103341780844800,0.4548447265625,0.009539604187011719,-0.00898677110671997,-0.0024003498256206512
1659103341790515700,0.464515625,-0.002368927001953125,-0.02170911431312561,-0.0035459697246551514
1659103341800186600,0.4741865234375,-0.006993293762207031,-0.0037729591131210327,0.0011239126324653625
1659103341809857500,0.483857421875,-0.000988006591796875,0.007976442575454712,-0.00012886151671409607
1659103341819528400,0.493528564453125,0.007227897644042969,0.013681307435035706,0.011524796485900879
1659103341829199400,0.503199462890625,0.011761665344238281,0.0040723830461502075,0.0065110959112644196
1659103341838870500,0.51287060546875,0.000972747802734375,0.009897366166114807,-0.0007124431431293488
1659103341848541400,0.52254150390625,0.0032978057861328125,0.014352217316627502,0.007364083081483841
1659103341858212400,0.53221240234375,0.0020599365234375,0.0023325979709625244,-0.002251695841550827
1659103341867883300,0.54188330078125,0.003192901611328125,0.006944149732589722,0.002340007573366165
1659103341877554200,0.55155419921875,0.006655693054199219,0.01029786467552185,0.001120682805776596
1659103341887225300,0.561225341796875,-0.000514984130859375,-0.00038464367389678955,-0.008410368114709854
1659103341896896300,0.570896240234375,0.010064125061035156,-0.008523598313331604,-0.004792295396327972
1659103341906567200,0.580567138671875,0.0028324127197265625,-0.011848539113998413,-0.008292049169540405
1659103341916238000,0.590238037109375,-0.0019207000732421875,-0.006862416863441467,-0.005883693695068359
1659103341925909000,0.599908935546875,0.00046253204345703125,-0.0008453130722045898,-0.005784269422292709
1659103341935580000,0.609579833984375,0.0063343048095703125,0.006217107176780701,-0.008126508444547653
1659103341945251000,0.6192509765625,-0.0008296966552734375,-0.005631744861602783,0.00021173059940338135
1659103341954922000,0.628921875,0.0027141571044921875,0.0014554858207702637,0.0025022290647029877
1659103341964593000,0.638593017578125,-0.0008611679077148438,0.009686127305030823,-0.00706840306520462
1659103341974263800,0.648263916015625,0.00150299072265625,0.014278769493103027,-0.005833715200424194
1659103341983934700,0.657934814453125,-0.00322723388671875,0.005740046501159668,0.00008695945143699646
1659103341993605600,0.667605712890625,-0.009055137634277344,0.003254145383834839,0.005879152566194534
1659103342003276500,0.677276611328125,0.005214691162109375,-0.0063057541847229,-0.0001885443925857544
1659103342012947500,0.686947509765625,-0.00075531005859375,0.006788849830627441,0.005694940686225891
1659103342022618600,0.69661865234375,0.00278472900390625,0.0031660497188568115,-0.0027801990509033203
1659103342032289500,0.70628955078125,0.008624076843261719,-0.016952216625213623,-0.009766258299350739
1659103342041960400,0.71596044921875,-0.015048980712890625,-0.013148680329322815,-0.014310713857412338
1659103342051631400,0.72563134765625,0.0052013397216796875,-0.001173943281173706,0.0011603012681007385
1659103342061302300,0.73530224609375,0.007468223571777344,-0.01060369610786438,-0.005979482084512711
1659103342070973200,0.74497314453125,-0.00324249267578125,0.003624662756919861,-0.0047365352511405945
1659103342080644000,0.75464404296875,-0.0008344650268554688,-0.008209168910980225,-0.003512263298034668
1659103342090315000,0.76431494140625,-0.005527496337890625,0.0036836713552474976,0.009399421513080597
1659103342099986200,0.773986083984375,0.007506370544433594,-0.0034451335668563843,-0.004933800548315048
1659103342109657000,0.783656982421875,0.0014972686767578125,-0.009250327944755554,-0.007292546331882477
1659103342119328000,0.793327880859375,0.009706497192382812,0.0038646459579467773,-0.00014400482177734375
1659103342128999000,0.8029990234375,-0.0022211074829101562,0.0073209404945373535,0.01276843249797821
1659103342138669800,0.812669921875,0.006052970886230469,-0.0046598464250564575,-0.01103338971734047
1659103342148340700,0.8223408203125,0.008305549621582031,-0.006972149014472961,-0.0085839182138443
1659103342158012000,0.832011962890625,0.0046367645263671875,-0.0056314170360565186,-0.011973634362220764
1659103342167682800,0.841682861328125,-0.0013227462768554688,0.0038655102252960205,-0.010685652494430542
1659103342177353700,0.851353759765625,0.005756378173828125,-0.005533918738365173,-0.01877332478761673
1659103342187024600,0.861024658203125,0.0033092498779296875,-0.0019780099391937256,-0.012609906494617462
1659103342196695600,0.870695556640625,0.0032520294189453125,-0.0018968433141708374,-0.011282864958047867
1659103342206366500,0.880366455078125,-0.0015077590942382812,-0.013638496398925781,-0.002918444573879242
1659103342216037600,0.89003759765625,-0.000308990478515625,-0.0015698224306106567,-0.008811760693788528
1659103342225708500,0.89970849609375,0.0032262802124023438,-0.0027575641870498657,0.004186883568763733
1659103342235379500,0.90937939453125,0.0043487548828125,-0.0015438348054885864,-0.007735658437013626
1659103342245050400,0.91905029296875,0.0042743682861328125,-0.000265270471572876,-0.0052862949669361115
1659103342254721300,0.92872119140625,0.004202842712402344,-0.00029759109020233154,0.0005696974694728851
1659103342264392200,0.93839208984375,0.0017805099487304688,-0.007417067885398865,-0.008968070149421692
1659103342274063400,0.9480634765625,-0.0029535293579101562,-0.0014766901731491089,-0.012407619506120682
1659103342283734300,0.957734375,0.0006227493286132812,-0.0037283748388290405,0.0006807558238506317
1659103342293405200,0.9674052734375,0.0076694488525390625,0.00582219660282135,-0.0029765069484710693
1659103342303076000,0.977076171875,0.001659393310546875,-0.0013426542282104492,-0.015872139483690262
1659103342312747000,0.9867470703125,0.006339073181152344,0.0044683367013931274,-0.010959979146718979
1659103342322418000,0.99641796875,0.008589744567871094,0.0030379891395568848,-0.0014820396900177002
1659103342332088800,1.0060888671875,0.0025634765625,-0.00525665283203125,-0.005017906427383423
1659103342341759700,1.015759765625,0.0036954879760742188,-0.007473766803741455,0.0067423805594444275
1659103342351431000,1.025430908203125,0.007164955139160156,-0.006238073110580444,-0.008750826120376587
1659103342361101800,1.035101806640625,0.0011615753173828125,-0.013173162937164307,0.017246227711439133
1659103342370772700,1.044772705078125,0.010553359985351562,-0.000049591064453125,0.014489337801933289
1659103342380443600,1.054443603515625,-0.0002117156982421875,-0.01176542043685913,-0.011666346341371536
1659103342390114600,1.064114501953125,-0.0037364959716796875,-0.011663660407066345,-0.0032975710928440094
1659103342399785500,1.073785400390625,0.0022115707397460938,-0.00450463593006134,0.00610886886715889
1659103342409456400,1.083456298828125,-0.004883766174316406,-0.003318697214126587,-0.006993737071752548
1659103342419127300,1.093127197265625,-0.0048007965087890625,-0.003357440233230591,0.0013554133474826813
1659103342428798500,1.102798583984375,0.011751174926757812,-0.0021621733903884888,-0.015140477567911148
1659103342438469400,1.112469482421875,0.015085220336914062,-0.0033113211393356323,0.003875788301229477
1659103342448140300,1.122140380859375,-0.0016393661499023438,0.0003213435411453247,0.0013979636132717133
1659103342457811200,1.131811279296875,-0.0074939727783203125,-0.011457428336143494,-0.001009434461593628
1659103342467482000,1.141482177734375,0.0055694580078125,0.002928107976913452,-0.0010508820414543152
1659103342477153000,1.151153076171875,0.009003639221191406,0.00528031587600708,-0.008180934935808182
1659103342486824200,1.16082421875,0.0017957687377929688,-0.012492209672927856,0.0024542398750782013
1659103342496495000,1.1704951171875,0.0005903244018554688,-0.002937719225883484,-0.000027008354663848877
1659103342506166000,1.180166015625,0.0029325485229492188,-0.00757502019405365,-0.005969204008579254
1659103342515837000,1.1898369140625,0.005238533020019531,-0.01342533528804779,-0.002429049462080002
1659103342525507800,1.1995078125,0.0027980804443359375,-0.0014457106590270996,-0.004858706146478653
1659103342535178800,1.2091787109375,-0.009015083312988281,-0.004930868744850159,0.0022234953939914703
1659103342544850000,1.218849853515625,0.0005464553833007812,0.005759716033935547,0.009159199893474579
1659103342554520800,1.228520751953125,0.0040683746337890625,-0.0026370733976364136,-0.008727923035621643
1659103342564191700,1.238191650390625,-0.00305938720703125,0.0033088624477386475,0.0019170381128787994
1659103342573862700,1.247862548828125,-0.005364418029785156,-0.007286623120307922,0.0029436908662319183
1659103342583533600,1.257533447265625,0.0017881393432617188,0.005596712231636047,-0.0018986612558364868
1659103342593204500,1.26720458984375,0.009991645812988281,0.0031986981630325317,-0.0030746571719646454
1659103342602875600,1.276875732421875,0.00394439697265625,0.007757052779197693,-0.012552376836538315
1659103342612546600,1.286546630859375,0.008584976196289062,-0.005378901958465576,-0.008872710168361664
1659103342622217500,1.296217529296875,0.008440971374511719,-0.0076223015785217285,-0.0064023807644844055
1659103342631888400,1.305888427734375,0.00241851806640625,-0.005150899291038513,-0.0027683116495609283
1659103342641559300,1.315559326171875,0.00002384185791015625,-0.012046948075294495,-0.012163765728473663
1659103342651230200,1.325230224609375,0.007080078125,-0.008268266916275024,-0.014372266829013824
1659103342660901400,1.3349013671875,-0.005980491638183594,-0.006933972239494324,-0.010661602020263672
1659103342670572300,1.344572265625,0.005885124206542969,-0.01158975064754486,0.004722803831100464
1659103342680243200,1.3542431640625,0.00225830078125,-0.002050444483757019,-0.008413627743721008
1659103342689914000,1.3639140625,-0.008367538452148438,0.007358074188232422,-0.008391279727220535
1659103342699585000,1.3735849609375,0.0023593902587890625,0.0013728290796279907,0.0022771842777729034
1659103342709256000,1.383255859375,0.015260696411132812,0.004899129271507263,-0.0025262869894504547
1659103342718927000,1.392927001953125,0.007946968078613281,0.0013076812028884888,0.005633905529975891
1659103342728598000,1.402597900390625,0.0066356658935546875,-0.018665790557861328,-0.014575868844985962
1659103342738269000,1.41226904296875,-0.0005350112915039062,-0.004188820719718933,-0.0037474222481250763
1659103342747939800,1.42193994140625,0.0018262863159179688,0.004193097352981567,-0.007273346185684204
1659103342757610800,1.43161083984375,0.0041484832763671875,0.0017328262329101562,-0.0037405937910079956
1659103342767281700,1.44128173828125,0.0040798187255859375,0.009873628616333008,0.000939536839723587
1659103342776952600,1.45095263671875,-0.0006961822509765625,0.0027268975973129272,-0.009695537388324738
1659103342786623700,1.460623779296875,0.008727073669433594,-0.01379770040512085,-0.013122323900461197
1659103342796294700,1.470294677734375,-0.0008287429809570312,-0.01248537003993988,-0.0070524439215660095
1659103342805965600,1.479965576171875,0.0038919448852539062,0.007685452699661255,-0.005904112011194229
1659103342815636500,1.489636474609375,0.010886192321777344,0.00869680941104889,0.004638191312551498
1659103342825307400,1.499307373046875,-0.004588127136230469,0.007338091731071472,0.012735877186059952
1659103342834978300,1.508978271484375,0.006076812744140625,0.0036493539810180664,0.002995964139699936
1659103342844649500,1.5186494140625,0.004797935485839844,0.0013123750686645508,-0.0018188171088695526
1659103342854320400,1.5283203125,-0.001163482666015625,0.0047829002141952515,-0.001790553331375122
1659103342863991300,1.5379912109375,-0.0023212432861328125,-0.0011878907680511475,0.0005041398108005524
1659103342873662200,1.547662109375,-0.0034589767456054688,0.0011764168739318848,0.005143333226442337
1659103342883333000,1.5573330078125,0.0024785995483398438,-0.0023242682218551636,-0.0032366514205932617
1659103342893004000,1.567004150390625,-0.0022706985473632812,0.010703861713409424,-0.009124699980020523
1659103342902675000,1.576675048828125,0.006003379821777344,0.0034294873476028442,-0.007855784147977829
1659103342912346000,1.58634619140625,0.015314102172851562,-0.003666907548904419,-0.005489129573106766
1659103342922017000,1.59601708984375,0.006821632385253906,-0.0023811161518096924,-0.009015154093503952
1659103342931688000,1.60568798828125,-0.0050563812255859375,0.004737302660942078,-0.023041516542434692
1659103342941358800,1.61535888671875,0.0056133270263671875,0.0012059956789016724,-0.002715103328227997
1659103342951029800,1.62502978515625,0.0008144378662109375,-0.007086560130119324,-0.007463831454515457
1659103342960700700,1.63470068359375,0.0031528472900390625,-0.004595771431922913,-0.006251055747270584
1659103342970371800,1.644371826171875,-0.001605987548828125,0.0025594085454940796,0.0031767934560775757
1659103342980042800,1.654042724609375,0.004302024841308594,0.0014169365167617798,-0.0004936642944812775
1659103342989713700,1.663713623046875,0.0042285919189453125,0.0002650618553161621,-0.008837290108203888
1659103342999384600,1.673384521484375,0.010037422180175781,0.0038954615592956543,0.005426269024610519
1659103343009055500,1.683055419921875,0.0039882659912109375,0.017939195036888123,-0.0029319897294044495
1659103343018726400,1.692726318359375,0.01097869873046875,0.00471864640712738,0.004143852740526199
1659103343028397600,1.7023974609375,-0.006850242614746094,0.004574373364448547,0.002781759947538376
1659103343038068500,1.712068359375,0.006206512451171875,-0.0061274319887161255,-0.0008543208241462708
1659103343047739400,1.721739501953125,0.0061016082763671875,-0.00009433925151824951,-0.00916147232055664
1659103343057410300,1.731410400390625,-0.0022363662719726562,0.009395822882652283,0.0026684999465942383
1659103343067081200,1.741081298828125,0.0119171142578125,-0.007211774587631226,0.002563711255788803
1659103343076752100,1.750752197265625,0.007012367248535156,-0.000013142824172973633,-0.0034216828644275665
1659103343086423300,1.76042333984375,0.011600494384765625,0.0011835694313049316,-0.00812884047627449
1659103343096094200,1.77009423828125,0.005523681640625,-0.00357896089553833,0.0013316459953784943
1659103343105765000,1.77976513671875,0.004253387451171875,-0.015235960483551025,-0.00463322177529335
1659103343115436000,1.78943603515625,-0.009934425354003906,0.0014797300100326538,-0.009322203695774078
1659103343125107000,1.79910693359375,-0.0074176788330078125,0.00029847025871276855,-0.006872866302728653
1659103343134777900,1.80877783203125,0.005646705627441406,-0.005569249391555786,-0.00917157530784607
1659103343144449000,1.818448974609375,0.010257720947265625,-0.0018990933895111084,-0.009079709649085999
1659103343154120000,1.828119873046875,0.000675201416015625,0.0028011351823806763,-0.003106340765953064
1659103343163790800,1.837790771484375,0.007724761962890625,-0.0055462270975112915,-0.004317808896303177
1659103343173461800,1.847461669921875,-0.0029926300048828125,-0.0007566213607788086,-0.01371726393699646
1659103343183132700,1.857132568359375,-0.0005893707275390625,0.0015716105699539185,0.004126567393541336
1659103343192803800,1.866803955078125,-0.0052852630615234375,0.0027131736278533936,-0.001855749636888504
1659103343202474800,1.876474853515625,-0.0004911422729492188,0.004983574151992798,0.012175589799880981
1659103343212145700,1.886145751953125,0.0006923675537109375,0.007273048162460327,-0.0033817775547504425
1659103343221816600,1.895816650390625,-0.0004968643188476562,0.007200300693511963,-0.010442547500133514
1659103343231487500,1.905487548828125,0.004220008850097656,-0.0024541914463043213,0.0026123560965061188
1659103343241158400,1.915158447265625,0.012385368347167969,0.018754467368125916,0.005981661379337311
1659103343250829600,1.92482958984375,0.003941535949707031,-0.009716734290122986,-0.015325695276260376
1659103343260500500,1.93450048828125,-0.00200653076171875,0.00458274781703949,-0.006922401487827301
1659103343270171400,1.94417138671875,-0.0007982254028320312,0.010408863425254822,0.004928514361381531
1659103343279842300,1.95384228515625,0.0039196014404296875,0.0008719712495803833,-0.00574391707777977
1659103343289513200,1.96351318359375,0.006205558776855469,0.002082139253616333,-0.009237240999937057
1659103343299184000,1.97318408203125,0.0013942718505859375,0.00800660252571106,0.0049469321966171265
1659103343308855300,1.982855224609375,-0.0021572113037109375,-0.00748676061630249,-0.00928502157330513
1659103343318526200,1.992526123046875,0.0025854110717773438,0.004337236285209656,-0.0056313686072826385
1659103343328197000,2.002197021484375,0.007244110107421875,-0.00501309335231781,-0.01262684166431427
1659103343337868000,2.011867919921875,0.0024156570434570312,-0.00017558038234710693,0.005141887813806534
1659103343347539000,2.0215390625,0.00002193450927734375,-0.0037110745906829834,-0.0020351633429527283
1659103343357210000,2.031210205078125,0.0011997222900390625,0.010431110858917236,-0.009091924875974655
1659103343366881000,2.040881103515625,0.008238792419433594,0.005514219403266907,-0.000793207436800003
1659103343376552000,2.050552001953125,0.010453224182128906,-0.00044029951095581055,-0.01030832901597023
1659103343386222800,2.060222900390625,0.006751060485839844,-0.001646474003791809,-0.0031082071363925934
1659103343395893800,2.069893798828125,0.0066394805908203125,-0.004009142518043518,-0.004292521625757217
1659103343405565000,2.07956494140625,0.004172325134277344,0.004369810223579407,-0.0008074752986431122
1659103343415235800,2.08923583984375,0.0005741119384765625,0.0007303804159164429,-0.0008821375668048859
1659103343424906800,2.09890673828125,0.006447792053222656,-0.004025012254714966,-0.006753180176019669
1659103343434577700,2.10857763671875,-0.0007181167602539062,0.005388200283050537,-0.005523800849914551
1659103343444248600,2.11824853515625,0.00988006591796875,0.014758661389350891,0.002659853547811508
1659103343453919500,2.12791943359375,0.007361412048339844,-0.004291117191314697,0.004965748637914658
1659103343463590700,2.137590576171875,0.0025339126586914062,0.013361692428588867,-0.004617571830749512
1659103343473261600,2.147261474609375,0.0036678314208984375,0.0072193145751953125,-0.010511759668588638
1659103343482932500,2.156932373046875,0.009490013122558594,0.0035325437784194946,0.004898592829704285
1659103343492603400,2.166603271484375,-0.0000820159912109375,-0.000007405877113342285,-0.0023008547723293304
1659103343502274300,2.1762744140625,0.009331703186035156,-0.001220792531967163,-0.01991160959005356
1659103343511945200,2.1859453125,-0.0049419403076171875,-0.005886450409889221,-0.0031681284308433533
1659103343521616400,2.195616455078125,0.0033769607543945312,0.004705756902694702,0.013295620679855347
1659103343531287300,2.205287353515625,0.0009679794311523438,0.0011176913976669312,0.0023976676166057587
1659103343540958200,2.214958251953125,0.006833076477050781,-0.0024106204509735107,0.011681359261274338
1659103343550629000,2.224629150390625,0.0008373260498046875,-0.003555789589881897,-0.019190378487110138
1659103343560300000,2.234300048828125,0.013764381408691406,0.0012006312608718872,-0.014167360961437225
1659103343569971000,2.243970947265625,0.0029439926147460938,-0.005829855799674988,-0.01634315773844719
1659103343579642000,2.25364208984375,0.01230621337890625,0.008376643061637878,-0.009098049253225327
1659103343589313000,2.26331298828125,0.006220817565917969,-0.0036219507455825806,-0.0031243860721588135
1659103343598984000,2.27298388671875,-0.0009412765502929688,-0.011805742979049683,-0.0078100524842739105
1659103343608654800,2.28265478515625,-0.002101898193359375,0.0036479681730270386,-0.007739536464214325
1659103343618325800,2.29232568359375,-0.00206756591796875,-0.006952732801437378,0.01118248701095581
1659103343627997000,2.301996826171875,0.009731292724609375,0.0073004066944122314,0.012140721082687378
1659103343637667800,2.311667724609375,0.007212638854980469,0.003782808780670166,-0.004592545330524445
1659103343647338800,2.3213388671875,0.00356292724609375,-0.006905540823936462,0.00004548206925392151
1659103343657009700,2.331009765625,-0.007084846496582031,-0.011505067348480225,0.0011615417897701263
1659103343666680600,2.3406806640625,0.0012674331665039062,-0.008940637111663818,-0.00006547942757606506
1659103343676351700,2.350351806640625,-0.0034608840942382812,-0.004065856337547302,-0.001271374523639679
1659103343686022700,2.360022705078125,0.015421867370605469,-0.012298792600631714,-0.00007508695125579834
1659103343695693600,2.369693603515625,0.038695335388183594,-0.0038957297801971436,-0.006015852093696594
1659103343705364500,2.379364501953125,0.021577835083007812,-0.012017861008644104,-0.008328195661306381
1659103343715035600,2.38903564453125,-0.023489952087402344,-0.007091924548149109,-0.017603885382413864
1659103343724706600,2.39870654296875,-0.026627540588378906,0.0047824084758758545,-0.011430185288190842
1659103343734377500,2.40837744140625,-0.000301361083984375,0.002341166138648987,-0.010065261274576187
1659103343744048400,2.41804833984375,0.02558612823486328,0.003413096070289612,0.0006602108478546143
1659103343753719300,2.42771923828125,0.006333351135253906,0.00699065625667572,-0.0018210187554359436
1659103343763390200,2.43739013671875,0.0026979446411132812,-0.0013984888792037964,-0.017173603177070618
1659103343773061400,2.447061279296875,0.007359504699707031,-0.004941657185554504,-0.0015668272972106934
1659103343782732300,2.456732177734375,0.000179290771484375,-0.01666104793548584,-0.009806536138057709
1659103343792403200,2.4664033203125,0.0037059783935546875,-0.011686205863952637,0.0009139440953731537
1659103343802074000,2.47607421875,-0.008120536804199219,-0.008027821779251099,-0.017985165119171143
1659103343811745000,2.4857451171875,0.00025081634521484375,-0.018490538001060486,0.0022854022681713104
1659103343821416000,2.495416015625,0.013188362121582031,-0.002925291657447815,-0.0025745294988155365
1659103343831087000,2.505087158203125,0.007084846496582031,-0.019298329949378967,-0.015586759895086288
1659103343840758000,2.514758056640625,-0.0036230087280273438,-0.006072565913200378,-0.0025017596781253815
1659103343850429000,2.524428955078125,-0.0012102127075195312,-0.002393558621406555,-0.015460260212421417
1659103343860099800,2.534099853515625,0.00586700439453125,0.008254066109657288,-0.004618417471647263
1659103343869770800,2.543770751953125,0.010478019714355469,-0.009624704718589783,0.010692998766899109
1659103343879442000,2.55344189453125,0.0079498291015625,-0.0012092441320419312,-0.007163491100072861
1659103343889112800,2.56311279296875,-0.0027704238891601562,0.0010984688997268677,-0.0153377465903759
1659103343898783700,2.57278369140625,0.0055103302001953125,0.004601016640663147,-0.006934314966201782
1659103343908454700,2.58245458984375,-0.007521629333496094,0.008044898509979248,0.001384679228067398
1659103343918125800,2.592125732421875,0.009076118469238281,-0.006301119923591614,-0.004581104964017868
1659103343927796700,2.601796630859375,0.008925437927246094,-0.006233438849449158,-0.0022121593356132507
1659103343937467600,2.611467529296875,-0.006516456604003906,0.004450127482414246,-0.006854761391878128
1659103343947138600,2.621138671875,0.010065078735351562,-0.015775442123413086,0.008549544960260391
1659103343956809500,2.6308095703125,0.011073112487792969,0.002154052257537842,0.0012587271630764008
1659103343966480600,2.640480712890625,-0.0008754730224609375,-0.004949674010276794,-0.001233164221048355
1659103343976151600,2.650151611328125,0.00384521484375,-0.001374959945678711,-0.00015278160572052002
1659103343985822500,2.659822509765625,0.01319122314453125,-0.00009912252426147461,0.0021416880190372467
1659103343995493400,2.669493408203125,0.009440422058105469,-0.004783719778060913,-0.002717200666666031
1659103344005164300,2.679164306640625,0.004576683044433594,0.0035512149333953857,-0.022702474147081375
1659103344014835200,2.688835205078125,-0.0049114227294921875,0.003454834222793579,-0.004822149872779846
1659103344024506400,2.69850634765625,-0.0012998580932617188,-0.00014102458953857422,-0.007212035357952118
1659103344034177300,2.70817724609375,-0.0012769699096679688,0.012736842036247253,-0.009532943367958069
1659103344043848200,2.71784814453125,0.008153915405273438,0.0008082389831542969,-0.01072346419095993
1659103344053519000,2.72751904296875,0.009195327758789062,0.005463346838951111,0.0046320706605911255
1659103344063190300,2.737190185546875,0.0008068084716796875,0.011245787143707275,0.0021700523793697357
1659103344072861200,2.746861083984375,-0.003911018371582031,-0.007802650332450867,-0.012044794857501984
1659103344082532000,2.756531982421875,0.005566596984863281,-0.004180386662483215,-0.006049860268831253
1659103344092203000,2.766203125,0.004298210144042969,0.006411746144294739,-0.004861392080783844
1659103344101874200,2.775874267578125,0.010111808776855469,-0.014994516968727112,0.0033939070999622345
1659103344111545000,2.785545166015625,0.0064144134521484375,0.0016600340604782104,-0.0014580488204956055
1659103344121216000,2.795216064453125,0.0004253387451171875,-0.013698965311050415,-0.005022846162319183
1659103344130887000,2.804886962890625,0.01218414306640625,0.011169567704200745,-0.01908799633383751
1659103344140557800,2.814557861328125,0.0049190521240234375,0.0063830167055130005,-0.004739046096801758
1659103344150228700,2.824228759765625,0.010720252990722656,0.007387429475784302,-0.000013861805200576782
1659103344159900000,2.83389990234375,-0.0000457763671875,-0.0010370910167694092,-0.004781220108270645
1659103344169570800,2.84357080078125,0.005839347839355469,-0.005819976329803467,-0.010672729462385178
1659103344179241700,2.85324169921875,-0.006023406982421875,0.003679797053337097,-0.002349063754081726
1659103344188912600,2.86291259765625,-0.0012178421020507812,0.017784640192985535,-0.002311296761035919
1659103344198583800,2.872583740234375,0.007040977478027344,0.003248363733291626,0.0035234279930591583
1659103344208254700,2.882254638671875,0.011630058288574219,-0.010989397764205933,0.002255689352750778
1659103344217925600,2.891925537109375,0.0067310333251953125,-0.012019917368888855,0.0033633634448051453
1659103344227596800,2.9015966796875,0.0030889511108398438,-0.00009194016456604004,-0.002719517797231674
1659103344237267700,2.911267822265625,-0.0016689300537109375,-0.00712960958480835,-0.008616909384727478
1659103344246938600,2.920938720703125,0.0030641555786132812,-0.011696889996528625,-0.003855578601360321
1659103344256609500,2.930609619140625,-0.0005130767822265625,-0.004565924406051636,-0.0015272237360477448
1659103344266280400,2.940280517578125,0.005379676818847656,-0.005760595202445984,-0.006324984133243561
1659103344275951400,2.949951416015625,0.006464958190917969,-0.005645096302032471,-0.01925026625394821
1659103344285622500,2.95962255859375,0.007534027099609375,0.007381334900856018,-0.0037526339292526245
1659103344295293400,2.96929345703125,0.009758949279785156,-0.011488229036331177,0.01266518235206604
1659103344304964400,2.97896435546875,0.002536773681640625,-0.0018366128206253052,-0.005223516374826431
1659103344314635300,2.98863525390625,0.0048465728759765625,0.011183559894561768,0.003068298101425171
1659103344324306400,2.998306396484375,0.015352249145507812,0.0016054511070251465,-0.011244311928749084
1659103344333977300,3.007977294921875,0.013922691345214844,0.0003077685832977295,-0.005235590040683746
1659103344343648300,3.017648193359375,-0.0027837753295898438,-0.004326373338699341,-0.004087857902050018
1659103344353319200,3.027319091796875,0.005496978759765625,0.00047138333320617676,0.006480317562818527
1659103344362990300,3.036990234375,0.005408287048339844,-0.00318869948387146,-0.007805708795785904
1659103344372661200,3.0466611328125,0.011199951171875,-0.0031160563230514526,-0.0206778384745121
1659103344382332200,3.056332275390625,0.005131721496582031,0.007487043738365173,-0.00745106115937233
1659103344392003000,3.066003173828125,0.0038690567016601562,-0.009088292717933655,-0.0061517879366874695
1659103344401674000,3.075674072265625,0.014390945434570312,-0.006564393639564514,-0.010873164981603622
1659103344411345200,3.08534521484375,-0.0011415481567382812,0.007625356316566467,0.019835930317640305
1659103344421016000,3.09501611328125,0.002407073974609375,0.0051081180572509766,-0.0005543828010559082
1659103344430687000,3.10468701171875,0.001190185546875,0.00027988851070404053,-0.0006333328783512115
1659103344440358100,3.114358154296875,0.008231163024902344,0.0060920268297195435,-0.007797617465257645
1659103344450029000,3.124029052734375,0.003387451171875,-0.0022252053022384644,-0.006580054759979248
1659103344459700000,3.133699951171875,0.00450897216796875,0.008306071162223816,0.007588237524032593
1659103344469371000,3.143370849609375,0.016199111938476562,0.004629507660865784,0.0039011389017105103
1659103344479041800,3.153041748046875,-0.0005426406860351562,0.010454460978507996,-0.0056638456881046295
1659103344488712700,3.162712646484375,-0.001708984375,0.009066551923751831,-0.007925111800432205
1659103344498384000,3.1723837890625,-0.020503997802734375,-0.008740484714508057,-0.00788189098238945
1659103344508054800,3.1820546875,0.004543304443359375,-0.005102619528770447,0.013366255909204483
1659103344517725700,3.1917255859375,0.04093647003173828,-0.01202787458896637,-0.017474636435508728
1659103344527396900,3.20139697265625,0.012020111083984375,-0.007187381386756897,-0.011361412703990936
1659103344537067800,3.21106787109375,-0.011708259582519531,-0.00595681369304657,-0.0007289983332157135
1659103344546738700,3.22073876953125,-0.02092456817626953,-0.0012172162532806396,-0.007891692221164703
1659103344556409600,3.23040966796875,0.0005998611450195312,0.005853444337844849,-0.010171465575695038
1659103344566080500,3.24008056640625,0.0182342529296875,-0.0035506337881088257,-0.013534076511859894
1659103344575751700,3.249751708984375,0.0026350021362304688,0.0036442577838897705,0.007865916937589645
1659103344585422600,3.259422607421875,0.004942893981933594,0.0047513991594314575,-0.005293898284435272
1659103344595093500,3.269093505859375,0.004860877990722656,-0.007129579782485962,-0.006469663232564926
1659103344604764400,3.278764404296875,0.0036029815673828125,-0.001108512282371521,-0.0028914697468280792
1659103344614435600,3.288435546875,0.005896568298339844,-0.00818607211112976,-0.019373580813407898
1659103344624106500,3.2981064453125,0.002269744873046875,-0.009234413504600525,0.007950447499752045
1659103344633777400,3.30777734375,-0.0001220703125,-0.0020305514335632324,0.0030801668763160706
1659103344643448300,3.3174482421875,0.001056671142578125,-0.0008288174867630005,-0.005265511572360992
1659103344653119500,3.327119384765625,0.005743980407714844,-0.00432451069355011,-0.0005309097468852997
1659103344662790400,3.336790283203125,-0.0002346038818359375,0.00047321617603302,-0.0064356401562690735
1659103344672461300,3.34646142578125,0.0009441375732421875,0.0017185509204864502,0.003052160143852234
1659103344682132200,3.35613232421875,0.012690544128417969,0.011178702116012573,-0.00526389479637146
1659103344691803400,3.365803466796875,0.007770538330078125,0.007511511445045471,-0.004058066755533218
1659103344701474300,3.375474365234375,0.007639884948730469,0.008611202239990234,-0.00869838148355484
1659103344711145200,3.385145263671875,0.00045490264892578125,0.00016680359840393066,-0.0015536211431026459
1659103344720816400,3.39481640625,0.006328582763671875,0.007271260023117065,-0.00746912881731987
1659103344730487300,3.4044873046875,-0.006718635559082031,-0.011682063341140747,0.00200808048248291
1659103344740158200,3.414158203125,0.008687019348144531,-0.006818830966949463,0.0007092580199241638
1659103344749829000,3.4238291015625,0.0061893463134765625,0.0039026737213134766,-0.012361116707324982
1659103344759500000,3.4335,-0.000972747802734375,-0.005611509084701538,-0.023980196565389633
1659103344769171200,3.443171142578125,0.0025730133056640625,0.00626625120639801,0.0022692717611789703
1659103344778842000,3.452842041015625,0.0025300979614257812,0.007301047444343567,-0.003682125359773636
1659103344788513000,3.462512939453125,0.0036640167236328125,-0.010476276278495789,-0.007180720567703247
1659103344798184200,3.47218408203125,-0.004628181457519531,0.00016413629055023193,0.0011443719267845154
1659103344807855000,3.481855224609375,0.004860877990722656,-0.004609912633895874,-0.008316349238157272
1659103344817526000,3.491526123046875,0.0036039352416992188,0.0013123303651809692,-0.023530248552560806
1659103344827197000,3.501197021484375,0.012957572937011719,0.003605782985687256,-0.016140978783369064
1659103344836867800,3.510867919921875,0.005681037902832031,0.004770427942276001,-0.0018425248563289642
1659103344846539000,3.5205390625,0.012644767761230469,-0.00008082389831542969,-0.008902542293071747
1659103344856210000,3.5302099609375,0.0030231475830078125,-0.0013216584920883179,-0.0029315240681171417
1659103344865880800,3.539880859375,0.0029726028442382812,0.0022207945585250854,-0.008854586631059647
1659103344875552000,3.549552001953125,0.005276679992675781,0.0068520307540893555,0.005320411175489426
1659103344885223000,3.559222900390625,0.008716583251953125,-0.0002442300319671631,-0.0007103383541107178
1659103344894893800,3.568893798828125,0.005042076110839844,0.0032517611980438232,0.0016218796372413635
1659103344904564700,3.578564697265625,0.002605438232421875,-0.001517176628112793,0.008536290377378464
1659103344914236000,3.58823583984375,0.004914283752441406,-0.00029577314853668213,-0.006988998502492905
1659103344923906800,3.59790673828125,0.008358955383300781,-0.006096288561820984,-0.005840584635734558
1659103344933577700,3.60757763671875,0.008218765258789062,-0.008356466889381409,-0.008213579654693604
1659103344943248600,3.61724853515625,0.005726814270019531,-0.008140265941619873,-0.003458350896835327
1659103344952919800,3.626919921875,0.002101898193359375,0.00019362568855285645,0.012982327491044998
1659103344962590700,3.6365908203125,-0.0026388168334960938,0.0025347620248794556,-0.004968669265508652
1659103344972261600,3.64626171875,-0.0072994232177734375,0.007161051034927368,0.0009360983967781067
1659103344981932800,3.655932861328125,0.0057659149169921875,0.009329050779342651,0.003214377909898758
1659103344991603700,3.665603759765625,0.009199142456054688,0.01148901879787445,-0.0039875805377960205
1659103345001274600,3.675274658203125,0.0066928863525390625,0.007787629961967468,-0.011069513857364655
1659103345010945500,3.684945556640625,0.0018758773803710938,0.004034191370010376,-0.010887742042541504
1659103345020616400,3.694616455078125,-0.00403594970703125,-0.009040072560310364,0.006880398839712143
1659103345030287600,3.70428759765625,0.004267692565917969,0.00401441752910614,-0.013266179710626602
1659103345039958500,3.71395849609375,0.008902549743652344,-0.0007668137550354004,-0.007221095263957977
1659103345049629700,3.723629638671875,-0.0018329620361328125,0.0003567039966583252,-0.0012781135737895966
1659103345059300600,3.733300537109375,-0.0006265640258789062,-0.017276376485824585,-0.0036973021924495697
1659103345068971500,3.742971435546875,-0.008853912353515625,-0.0027941465377807617,-0.010783407837152481
1659103345078642400,3.752642333984375,-0.000469207763671875,-0.0016369521617889404,-0.00472472608089447
1659103345088313300,3.762313232421875,-0.00281524658203125,0.008969858288764954,-0.0011762864887714386
1659103345097984500,3.771984619140625,0.0007600784301757812,0.00884014368057251,-0.010599672794342041
1659103345107655400,3.781655517578125,-0.0016050338745117188,0.005154535174369812,-0.009278431534767151
1659103345117326600,3.79132666015625,-0.0027523040771484375,0.006151139736175537,-0.01621248945593834
1659103345126997500,3.80099755859375,-0.0015306472778320312,-0.006929636001586914,-0.013676881790161133
1659103345136668400,3.81066845703125,0.0067310333251953125,0.0037368983030319214,-0.00292041152715683
1659103345146339300,3.82033935546875,0.00897216796875,0.013049036264419556,-0.01122443750500679
1659103345156010200,3.83001025390625,-0.0005893707275390625,-0.0012951046228408813,-0.011155430227518082
1659103345165681400,3.839681396484375,0.004128456115722656,-0.0013677328824996948,-0.00046948716044425964
1659103345175352300,3.849352294921875,0.0028848648071289062,-0.0025871247053146362,0.002979535609483719
1659103345185023200,3.859023193359375,-0.00186920166015625,-0.001376524567604065,-0.014749754220247269
1659103345194694400,3.8686943359375,0.000514984130859375,0.002138763666152954,0.0008166581392288208
1659103345204365300,3.878365234375,0.011095046997070312,-0.014347568154335022,-0.00278540700674057
1659103345214036200,3.8880361328125,0.006201744079589844,-0.0011471807956695557,-0.015767041593790054
1659103345223707400,3.897707275390625,0.0049228668212890625,-0.008166953921318054,-0.006151534616947174
1659103345233378300,3.90737841796875,-0.0010404586791992188,0.004816129803657532,-0.009609639644622803
1659103345243049200,3.91704931640625,0.003681182861328125,-0.00577603280544281,-0.002452392131090164
1659103345252720000,3.92672021484375,0.0012664794921875,0.0013702213764190674,0.005763381719589233
1659103345262391300,3.936391357421875,-0.00110626220703125,-0.0069252848625183105,-0.002628367394208908
1659103345272062200,3.946062255859375,0.00244140625,-0.0055849552154541016,-0.0013816356658935547
1659103345281733000,3.955733154296875,0.002399444580078125,-0.0007948428392410278,-0.0025669746100902557
1659103345291404300,3.965404296875,0.008240699768066406,0.003972858190536499,-0.00734546035528183
1659103345301075200,3.9750751953125,0.0033979415893554688,0.009780153632164001,-0.014399264007806778
1659103345310746000,3.98474609375,-0.00136566162109375,-0.005657166242599487,0.004576031118631363
1659103345320417000,3.9944169921875,0.013946533203125,-0.00189952552318573,-0.0061475299298763275
1659103345330088200,4.004088134765625,0.0019474029541015625,-0.011202827095985413,0.0009255222976207733
1659103345339759000,4.013759033203125,0.0030927658081054688,-0.006347596645355225,0.02323114685714245
1659103345349430000,4.023429931640625,-0.03342914581298828,-0.0027215182781219482,0.0027536973357200623
1659103345359101000,4.033100830078125,0.04594898223876953,0.010313302278518677,-0.0020008087158203125
1659103345368772000,4.042772216796875,0.03577136993408203,-0.003956466913223267,-0.013791907578706741
1659103345378443000,4.052443115234375,-0.022477149963378906,-0.00019849836826324463,0.00046871230006217957
1659103345388114200,4.0621142578125,0.02142620086669922,0.004501432180404663,-0.005455370992422104
1659103345397785000,4.07178515625,-0.040108680725097656,0.00923745334148407,-0.012455180287361145
1659103345407456000,4.0814560546875,0.03585243225097656,0.0055452436208724976,-0.014717947691679
1659103345417127000,4.091126953125,-0.00121307373046875,0.00653490424156189,-0.019267451018095016
1659103345426798000,4.100798095703125,-0.0011949539184570312,0.01235663890838623,-0.015505153685808182
1659103345436469000,4.110468994140625,0.001178741455078125,0.002730235457420349,-0.003541756421327591
1659103345446140000,4.120139892578125,-0.014136314392089844,0.0038235634565353394,0.004662312567234039
1659103345455811000,4.12981103515625,0.011982917785644531,0.0036942511796951294,0.0009676329791545868
1659103345465482000,4.13948193359375,0.005900382995605469,-0.006907269358634949,0.0044496916234493256
1659103345475153000,4.14915283203125,-0.010669708251953125,-0.011478230357170105,0.011403132230043411
1659103345484824000,4.158823974609375,0.00362396240234375,-0.011210262775421143,0.0017123967409133911
1659103345494495000,4.168494873046875,0.00003147125244140625,-0.008622333407402039,0.006300833076238632
1659103345504166000,4.178165771484375,0.0023851394653320312,-0.007339403033256531,0.010813456028699875
1659103345513836800,4.1878369140625,-0.0035371780395507812,-0.003639504313468933,-0.012928090989589691
1659103345523508000,4.197508056640625,0.010636329650878906,-0.012913957238197327,-0.004594746977090836
1659103345533179000,4.207178955078125,0.008103370666503906,-0.004386767745018005,0.0036567188799381256
1659103345542849800,4.216849853515625,0.0056171417236328125,0.0097380131483078,0.008212067186832428
1659103345552521000,4.22652099609375,-0.008594512939453125,0.0048612505197525024,-0.003720078617334366
1659103345562192000,4.23619189453125,0.0033130645751953125,0.007095798850059509,-0.014335241168737411
1659103345571863000,4.245863037109375,0.011493682861328125,0.0045873671770095825,-0.009507186710834503
1659103345581534000,4.255533935546875,0.0030660629272460938,0.010442107915878296,-0.008200813084840775
1659103345591204900,4.265204833984375,-0.001689910888671875,0.007849544286727905,-0.01280057430267334
1659103345600875800,4.274875732421875,0.004221916198730469,0.01585964858531952,-0.0032643787562847137
1659103345610547000,4.284546875,0.001800537109375,-0.005646765232086182,-0.00329754501581192
1659103345620217900,4.2942177734375,0.004122734069824219,-0.003180071711540222,0.00728524848818779
1659103345629888800,4.303888671875,0.007579803466796875,-0.011257186532020569,0.001249566674232483
1659103345639559700,4.3135595703125,-0.007839202880859375,-0.0028716474771499634,0.003521271049976349
1659103345649230800,4.32323095703125,0.0064067840576171875,-0.002775624394416809,-0.011920459568500519
1659103345658901800,4.33290185546875,0.012182235717773438,-0.00044201314449310303,-0.0082799531519413
1659103345668573000,4.342572998046875,-0.0009593963623046875,-0.0028823912143707275,0.007032722234725952
1659103345678243800,4.352243896484375,-0.0021190643310546875,-0.0016949623823165894,0.0021505579352378845
1659103345687914800,4.361914794921875,0.006150245666503906,0.0031158477067947388,-0.004976019263267517
1659103345697586000,4.3715859375,0.0048732757568359375,0.005322322249412537,-0.013246487826108932
1659103345707256800,4.3812568359375,-0.0022687911987304688,0.014665722846984863,-0.00017008930444717407
1659103345716927700,4.390927734375,0.004826545715332031,0.014469727873802185,-0.0049322135746479034
1659103345726598700,4.4005986328125,0.0012149810791015625,-0.002222388982772827,-0.016703642904758453
1659103345736269800,4.410269775390625,0.010605812072753906,0.0013635754585266113,-0.01416189968585968
1659103345745940700,4.419940673828125,0.0021924972534179688,0.00021238625049591064,-0.005751654505729675
1659103345755612000,4.42961181640625,-0.0001964569091796875,-0.0033863186836242676,-0.025715548545122147
1659103345765282800,4.43928271484375,0.005687713623046875,-0.0009571462869644165,-0.001817271113395691
1659103345774953700,4.44895361328125,-0.00029087066650390625,-0.006775110960006714,0.001683361828327179
1659103345784625000,4.458625,-0.0014638900756835938,-0.019612520933151245,-0.010171167552471161
1659103345794295800,4.4682958984375,-0.007321357727050781,-0.0016759485006332397,0.005203548818826675
1659103345803966700,4.477966796875,-0.00484466552734375,-0.0029186010360717773,0.00032335519790649414
1659103345813637600,4.4876376953125,-0.0012350082397460938,-0.0028503090143203735,-0.0032433532178401947
1659103345823308800,4.497308837890625,0.010549545288085938,-0.008694007992744446,-0.0020732469856739044
1659103345832979700,4.506979736328125,-0.008450508117675781,-0.00029431283473968506,-0.002128288149833679
1659103345842650600,4.516650634765625,-0.0000743865966796875,0.006732195615768433,-0.0021525658667087555
1659103345852321800,4.52632177734375,0.008161544799804688,0.01134537160396576,-0.0021492615342140198
1659103345861992700,4.53599267578125,0.0021429061889648438,-0.0029701143503189087,-0.01037997379899025
1659103345871663900,4.545663818359375,0.003284454345703125,0.012336283922195435,-0.01152871921658516
1659103345881334800,4.555334716796875,-0.006183624267578125,0.019237786531448364,-0.0031039975583553314
1659103345891005700,4.565005615234375,0.008037567138671875,0.0036140382289886475,-0.0007889233529567719
1659103345900676900,4.5746767578125,0.009082794189453125,-0.007100328803062439,-0.006633009761571884
1659103345910347800,4.58434765625,0.0030508041381835938,0.00001068413257598877,0.006442494690418243
1659103345920018700,4.594018798828125,-0.008764266967773438,-0.004704400897026062,0.009831953793764114
1659103345929689600,4.603689697265625,0.0066738128662109375,-0.010488957166671753,-0.005687795579433441
1659103345939360800,4.61336083984375,0.004210472106933594,-0.006793469190597534,-0.005709763616323471
1659103345949031700,4.62303173828125,-0.001743316650390625,-0.0066603124141693115,-0.00446869432926178
1659103345958702600,4.63270263671875,0.0018138885498046875,-0.0029716044664382935,-0.0033060014247894287
1659103345968373800,4.642373779296875,0.0029611587524414062,-0.008898809552192688,-0.003368344157934189
1659103345978044700,4.652044677734375,-0.004145622253417969,-0.006434798240661621,0.004863344132900238
1659103345987715800,4.6617158203125,-0.009958267211914062,0.0018421560525894165,-0.00006820634007453918
1659103345997386800,4.67138671875,-0.0015592575073242188,-0.0063752830028533936,-0.010713707655668259
1659103346007057700,4.6810576171875,-0.00035762786865234375,-0.0038676410913467407,-0.0012109577655792236
1659103346016728800,4.690728759765625,0.005528450012207031,-0.011961802840232849,-0.0011656619608402252
1659103346026399700,4.700399658203125,0.0019054412841796875,0.01063866913318634,-0.00938493013381958
1659103346036070700,4.710070556640625,-0.007538795471191406,-0.009490340948104858,-0.009202733635902405
1659103346045741800,4.719741943359375,-0.00388336181640625,0.0000708550214767456,0.0038605891168117523
1659103346055412700,4.729412841796875,0.026770591735839844,-0.003497108817100525,-0.004499472677707672
1659103346065083600,4.739083740234375,-0.0054416656494140625,-0.01871316134929657,0.0013696104288101196
1659103346074754800,4.7487548828125,0.013475418090820312,-0.01143711805343628,0.008286826312541962
1659103346084425700,4.75842578125,-0.02086639404296875,-0.0019007623195648193,-0.001324150711297989
1659103346094097000,4.768096923828125,0.015952110290527344,0.005152374505996704,-0.013127215206623077
1659103346103767800,4.777767822265625,-0.00196075439453125,-0.0008245855569839478,-0.00946728140115738
1659103346113438700,4.787438720703125,-0.00428009033203125,0.0026812106370925903,0.00471922755241394
1659103346123110000,4.79710986328125,0.0016717910766601562,0.007419213652610779,-0.0012730248272418976
1659103346132780800,4.80678076171875,-0.0018873214721679688,0.0026096105575561523,-0.0071362219750881195
1659103346142451700,4.81645166015625,0.009908676147460938,-0.012708514928817749,-0.0023724958300590515
1659103346152122600,4.82612255859375,-0.0031957626342773438,0.005084633827209473,-0.011747453361749649
1659103346161793800,4.835793701171875,-0.004319190979003906,0.0003422945737838745,-0.015112321823835373
1659103346171464700,4.845464599609375,0.008692741394042969,-0.0090552419424057,-0.006712749600410461
1659103346181135600,4.855135498046875,0.0050182342529296875,0.008762657642364502,-0.006631448864936829
1659103346190806800,4.864806884765625,0.0014047622680664062,0.010989084839820862,-0.005405548959970474
1659103346200477700,4.874477783203125,-0.0045013427734375,-0.013909116387367249,0.0075639598071575165
1659103346210148900,4.88414892578125,0.007340431213378906,0.0015222877264022827,0.008553273975849152
1659103346219819800,4.89381982421875,0.007218360900878906,-0.010276377201080322,0.0036457516252994537
1659103346229491000,4.903490966796875,-0.0034914016723632812,-0.008908987045288086,-0.007035166025161743
1659103346239161900,4.913161865234375,0.0012712478637695312,0.004200458526611328,-0.005744170397520065
1659103346248832800,4.922832763671875,0.0024251937866210938,-0.00643843412399292,-0.010359063744544983
1659103346258504000,4.93250390625,0.009443283081054688,0.0019524693489074707,-0.013747073709964752
1659103346268174800,4.9421748046875,-0.006008148193359375,0.0031164735555648804,-0.011223439127206802
1659103346277845800,4.951845703125,-0.010615348815917969,0.0007315129041671753,-0.006418101489543915
1659103346287517000,4.961516845703125,-0.0010251998901367188,-0.007553219795227051,-0.011076778173446655
1659103346297187800,4.971187744140625,0.0025186538696289062,-0.0014966726303100586,-0.002716619521379471
1659103346306858800,4.980858642578125,-0.0010547637939453125,0.013899505138397217,-0.006259184330701828
1659103346316530000,4.990530029296875,-0.008095741271972656,0.014835730195045471,-0.015597216784954071
1659103346326200800,5.000200927734375,-0.0020771026611328125,0.0027297884225845337,0.0022513866424560547
1659103346335872000,5.0098720703125,-0.0032167434692382812,-0.005645260214805603,0.0021255947649478912
1659103346345543000,5.01954296875,0.0062503814697265625,-0.006764739751815796,-0.01911688596010208
1659103346355213800,5.0292138671875,0.0084991455078125,0.014515623450279236,0.0035227686166763306
1659103346364885000,5.038885009765625,0.0024709701538085938,-0.004444807767868042,0.006932370364665985
1659103346374556000,5.048555908203125,0.000080108642578125,0.0025654882192611694,0.001966319978237152
1659103346384226800,5.058226806640625,0.0036096572875976562,-0.010455816984176636,0.004226066172122955
1659103346393898000,5.06789794921875,0.011782646179199219,0.0027080774307250977,-0.008873149752616882
1659103346403569000,5.07756884765625,0.006878852844238281,0.001563146710395813,-0.009933650493621826
1659103346413239800,5.08723974609375,0.0032339096069335938,0.01096893846988678,-0.008650034666061401
1659103346422911000,5.096910888671875,-0.0027017593383789062,0.002513602375984192,-0.006269712001085281
1659103346432582000,5.106581787109375,-0.0026578903198242188,0.011903539299964905,-0.008548058569431305
1659103346442252800,5.116252685546875,0.003269195556640625,0.006933644413948059,-0.004992291331291199
1659103346451924000,5.125924072265625,-0.0050201416015625,-0.0037790387868881226,-0.014381278306245804
1659103346461595100,5.13559521484375,0.0021190643310546875,0.008182525634765625,0.002240736037492752
1659103346471266000,5.14526611328125,0.005612373352050781,-0.001431092619895935,-0.007295306771993637
1659103346480937000,5.15493701171875,0.00199127197265625,-0.0026496052742004395,-0.009587086737155914
1659103346490608000,5.164608154296875,0.0007810592651367188,-0.0014661997556686401,-0.011868510395288467
1659103346500279000,5.174279052734375,0.013709068298339844,0.009137630462646484,-0.003552854061126709
1659103346509950000,5.183949951171875,0.011127471923828125,-0.002788260579109192,-0.009350880980491638
1659103346519621000,5.19362109375,0.0015316009521484375,-0.005103453993797302,0.0036863945424556732
1659103346529292000,5.2032919921875,-0.0008497238159179688,-0.016706541180610657,-0.011701755225658417
1659103346538963000,5.212962890625,0.009751319885253906,-0.009349480271339417,-0.0021262019872665405
1659103346548634000,5.222634033203125,-0.005706787109375,0.0026477426290512085,-0.006885599344968796
1659103346558305000,5.232304931640625,0.0038003921508789062,0.009596690535545349,0.0001997053623199463
1659103346567976000,5.241975830078125,-0.006848335266113281,0.003431767225265503,-0.006864503026008606
1659103346577647000,5.251647216796875,0.0026769638061523438,0.013982459902763367,-0.01504582166671753
1659103346587318000,5.261318115234375,0.010865211486816406,0.005590811371803284,-0.01250254362821579
1659103346596989200,5.2709892578125,-0.005785942077636719,0.000782892107963562,-0.0005898922681808472
1659103346606660000,5.28066015625,-0.004513740539550781,0.0019372999668121338,0.004064727574586868
1659103346616331300,5.290331298828125,-0.010320663452148438,0.0030726194381713867,-0.00197431817650795
1659103346626002200,5.300002197265625,0.0027942657470703125,0.007633015513420105,-0.0055305808782577515
1659103346635673000,5.309673095703125,0.006275177001953125,0.009821653366088867,0.015621967613697052
1659103346645344300,5.31934423828125,-0.003238677978515625,-0.004525572061538696,0.004712935537099838
1659103346655015200,5.32901513671875,0.0038728713989257812,-0.00443035364151001,-0.014191865921020508
1659103346664686300,5.338686279296875,0.0049839019775390625,-0.011424213647842407,0.002426315099000931
1659103346674357200,5.348357177734375,0.0025472640991210938,0.002932325005531311,0.002326797693967819
1659103346684028200,5.358028076171875,0.016622543334960938,-0.003007635474205017,-0.0024776197969913483
1659103346693699300,5.36769921875,-0.0012998580932617188,-0.00422823429107666,-0.008321408182382584
1659103346703370200,5.377370361328125,-0.005984306335449219,-0.0053429752588272095,0.002317246049642563
1659103346713041200,5.387041259765625,0.009409904479980469,0.0005913376808166504,-0.00604427233338356
1659103346722712300,5.39671240234375,0.0057239532470703125,0.007574424147605896,0.0022598467767238617
1659103346732383200,5.40638330078125,0.013863563537597656,-0.0019436627626419067,-0.007305704057216644
1659103346742054400,5.416054443359375,0.0018663406372070312,-0.007745295763015747,-0.007272221148014069
1659103346751725300,5.425725341796875,-0.009930610656738281,-0.008772745728492737,-0.013120986521244049
1659103346761396500,5.435396484375,0.034943580627441406,-0.007600933313369751,-0.008282680064439774
1659103346771067400,5.4450673828125,-0.012698173522949219,-0.008631214499473572,-0.001089874655008316
1659103346780738600,5.454738525390625,0.007511138916015625,0.0009725987911224365,-0.000012714415788650513
1659103346790409500,5.464409423828125,-0.04673194885253906,-0.009583666920661926,-0.020015917718410492
1659103346800080400,5.474080322265625,0.050518035888671875,0.0011267662048339844,0.002638053148984909
1659103346809751600,5.48375146484375,0.028499603271484375,-0.009489119052886963,-0.003405749797821045
1659103346819422500,5.49342236328125,-0.036683082580566406,-0.0034005939960479736,-0.006939515471458435
1659103346829093400,5.50309326171875,0.0027523040771484375,0.00014854967594146729,0.0013815313577651978
1659103346838764500,5.5127646484375,-0.0019998550415039062,0.003695160150527954,-0.00455576553940773
1659103346848435500,5.522435546875,0.014501571655273438,-0.009259432554244995,-0.01395205408334732
1659103346858106600,5.532106689453125,-0.009270668029785156,0.0038560181856155396,-0.0032188966870307922
1659103346867777500,5.541777587890625,0.00029754638671875,-0.002099469304084778,-0.006726585328578949
1659103346877448400,5.551448486328125,0.010878562927246094,-0.009103477001190186,0.0050904713571071625
1659103346887119600,5.56111962890625,-0.002239227294921875,0.006162539124488831,-0.011524740606546402
1659103346896790500,5.57079052734375,0.0036802291870117188,0.003698304295539856,-0.01018676906824112
1659103346906461700,5.580461669921875,-0.0022640228271484375,-0.005755305290222168,-0.001898501068353653
1659103346916132600,5.590132568359375,-0.002227783203125,-0.002081647515296936,-0.004336614161729813
1659103346925803800,5.5998037109375,-0.004543304443359375,-0.004408746957778931,0.003853481262922287
1659103346935474700,5.609474609375,-0.006817817687988281,0.00024797022342681885,-0.00450514629483223
1659103346945145900,5.619145751953125,-0.0008211135864257812,0.004884257912635803,0.007247708737850189
1659103346954816800,5.628816650390625,0.00036907196044921875,-0.004589244723320007,-0.003493253141641617
1659103346964487700,5.63848779296875,0.0027151107788085938,0.003713831305503845,-0.004699788987636566
1659103346974158800,5.648158935546875,-0.0032148361206054688,-0.003329917788505554,-0.010534394532442093
1659103346983829800,5.657829833984375,-0.009043693542480469,0.0025708675384521484,0.0013182684779167175
1659103346993500700,5.667500732421875,0.0028705596923828125,-0.0009532272815704346,-0.022293563932180405
1659103347003171800,5.677171875,0.0004711151123046875,-0.004504293203353882,0.011015109717845917
1659103347012842800,5.6868427734375,-0.0018901824951171875,-0.007938951253890991,0.0001258067786693573
1659103347022514000,5.696513916015625,0.0040225982666015625,0.006330966949462891,0.00009312480688095093
1659103347032184800,5.706184814453125,0.011014938354492188,0.0038639456033706665,0.004766874015331268
1659103347041856000,5.71585595703125,-0.004466056823730469,-0.006740674376487732,-0.005961921066045761
1659103347051527000,5.72552685546875,-0.009098052978515625,-0.0006979405879974365,0.009370461106300354
1659103347061197800,5.73519775390625,-0.0007114410400390625,0.0004814416170120239,-0.002581678330898285
1659103347070869000,5.744868896484375,0.0004787445068359375,-0.008975446224212646,-0.010833051055669785
1659103347080540000,5.754539794921875,-0.008941650390625,-0.014745175838470459,0.003406718373298645
1659103347090211000,5.764211181640625,0.013562202453613281,-0.0051247477531433105,0.008025232702493668
1659103347099882000,5.773882080078125,0.0062770843505859375,-0.007429495453834534,0.005478765815496445
1659103347109553200,5.78355322265625,0.0038175582885742188,-0.013111352920532227,-0.009995635598897934
1659103347119224000,5.79322412109375,0.0025758743286132812,0.008331984281539917,0.0018473714590072632
1659103347128895200,5.802895263671875,0.002532958984375,0.00818440318107605,0.0017568059265613556
1659103347138566100,5.812566162109375,-0.009275436401367188,0.00453852117061615,-0.006566882133483887
1659103347148237000,5.822237060546875,0.008524894714355469,-0.00019471347332000732,-0.007693681865930557
1659103347157908200,5.831908203125,0.004856109619140625,-0.007316038012504578,0.001843571662902832
1659103347167579100,5.8415791015625,0.005950927734375,-0.004821360111236572,-0.013512536883354187
1659103347177250300,5.851250244140625,-0.00002956390380859375,-0.005954578518867493,0.007830038666725159
1659103347186921200,5.860921142578125,0.0046787261962890625,-0.0011865496635437012,-0.001771342009305954
1659103347196592400,5.87059228515625,-0.003635406494140625,0.002382442355155945,0.0006083846092224121
1659103347206263300,5.88026318359375,-0.007105827331542969,0.007096931338310242,-0.00766831636428833
1659103347215934200,5.889934326171875,-0.0011053085327148438,0.0058215707540512085,-0.00048642605543136597
1659103347225605400,5.89960546875,0.00008869171142578125,0.009245365858078003,-0.02291889861226082
1659103347235276300,5.9092763671875,0.0024423599243164062,-0.0004432946443557739,-0.0003007836639881134
1659103347244947500,5.918947509765625,-0.004657745361328125,0.00546640157699585,0.0031460151076316833
1659103347254618400,5.928618408203125,0.006008148193359375,0.005366429686546326,-0.006378635764122009
1659103347264289300,5.938289306640625,0.009435653686523438,-0.00529131293296814,0.0019038654863834381
1659103347273960400,5.94796044921875,0.009276390075683594,0.0066103339195251465,-0.001743566244840622
1659103347283631400,5.95763134765625,-0.0014667510986328125,-0.0064496248960494995,-0.013481281697750092
1659103347293302500,5.967302490234375,0.0009107589721679688,-0.0004684925079345703,0.007860105484724045
1659103347302973400,5.976973388671875,-0.000278472900390625,-0.009966865181922913,0.006520707160234451
1659103347312644600,5.98664453125,-0.0038003921508789062,-0.0016882866621017456,-0.0077653974294662476
1659103347322315500,5.9963154296875,0.004500389099121094,0.004156440496444702,-0.008872222155332565
1659103347331986700,6.005986572265625,-0.0038099288940429688,-0.008891120553016663,-0.001753155142068863
1659103347341657600,6.01565771484375,-0.0037450790405273438,-0.007632240653038025,-0.00528460368514061
1659103347351328800,6.025328857421875,-0.0036821365356445312,-0.009895369410514832,-0.002846989780664444
1659103347360999700,6.034999755859375,0.0010843276977539062,0.002054080367088318,-0.008713152259588242
1659103347370670800,6.0446708984375,0.0057697296142578125,-0.010844632983207703,-0.0003930814564228058
1659103347380341800,6.054341796875,-0.0025606155395507812,-0.014230549335479736,-0.018093377351760864
1659103347390013000,6.064012939453125,-0.0036945343017578125,0.005997642874717712,-0.009617641568183899
1659103347399683800,6.073683837890625,-0.0059871673583984375,-0.0011415034532546997,-0.00007750093936920166
1659103347409354800,6.083354736328125,0.004703521728515625,-0.007127478718757629,-0.0142815001308918
1659103347419026000,6.09302587890625,-0.0059642791748046875,0.007129058241844177,-0.005895141512155533
1659103347428696800,6.10269677734375,-0.0011577606201171875,0.010502398014068604,0.0012021549046039581
1659103347438368000,6.112367919921875,0.0012159347534179688,-0.005004137754440308,0.016472838819026947
1659103347448039000,6.122038818359375,0.004726409912109375,-0.0038104653358459473,0.0031668096780776978
1659103347457710000,6.1317099609375,0.004645347595214844,-0.011962160468101501,0.0030270665884017944
1659103347467381000,6.141381103515625,-0.0024919509887695312,0.0011984854936599731,-0.013609472662210464
1659103347477052200,6.15105224609375,0.006961822509765625,-0.015357732772827148,-0.007559407502412796
1659103347486723000,6.16072314453125,0.0103759765625,-0.008108556270599365,-0.013346366584300995
1659103347496394000,6.17039404296875,0.012555122375488281,-0.0067770034074783325,-0.013183046132326126
1659103347506065200,6.180065185546875,0.004111289978027344,0.0003285706043243408,-0.017759520560503006
1659103347515736000,6.189736083984375,0.0028667449951171875,0.00972585380077362,-0.01276172325015068
1659103347525407200,6.1994072265625,-0.00188446044921875,-0.00932525098323822,-0.013755429536104202
1659103347535078100,6.209078125,0.0028514862060546875,-0.005649000406265259,0.005238249897956848
1659103347544749300,6.218749267578125,-0.001903533935546875,-0.0007719695568084717,-0.0043199434876441956
1659103347554420200,6.228420166015625,-0.004223823547363281,-0.007883831858634949,0.0038698576390743256
1659103347564091400,6.23809130859375,0.000553131103515625,-0.004259973764419556,-0.0021924972534179688
1659103347573762300,6.24776220703125,-0.0006322860717773438,0.0005086064338684082,0.0012586265802383423
1659103347583433200,6.25743310546875,0.00290679931640625,-0.007772535085678101,-0.003528691828250885
1659103347593104400,6.2671044921875,0.0005044937133789062,0.004141524434089661,0.0023241639137268066
1659103347602775600,6.276775634765625,-0.0006799697875976562,0.008798062801361084,0.004577919840812683
1659103347612446500,6.286446533203125,-0.00772857666015625,0.003936946392059326,-0.010823100805282593
1659103347622117600,6.29611767578125,0.008871078491210938,0.008540257811546326,-0.00011293217539787292
1659103347631788500,6.30578857421875,-0.00656890869140625,-0.0010509639978408813,-0.008405469357967377
1659103347641459700,6.315459716796875,0.0029506683349609375,-0.0033667385578155518,0.00579182431101799
1659103347651130600,6.325130615234375,-0.005331993103027344,0.0072405338287353516,-0.006071493029594421
1659103347660801800,6.3348017578125,-0.0028896331787109375,-0.0000046193599700927734,0.0045302994549274445
1659103347670472700,6.34447265625,-0.002841949462890625,0.014104679226875305,-0.0061918944120407104
1659103347680144000,6.354143798828125,0.004267692565917969,-0.009782776236534119,0.0020861513912677765
1659103347689814800,6.363814697265625,0.001842498779296875,0.006842136383056641,-0.00506722554564476
1659103347699485700,6.373485595703125,-0.004070281982421875,0.010191872715950012,-0.002688940614461899
1659103347709156900,6.383156982421875,-0.002826690673828125,-0.0005177706480026245,0.0020596906542778015
1659103347718827800,6.392827880859375,-0.003955841064453125,0.0030116885900497437,-0.0050925761461257935
1659103347728499000,6.4024990234375,-0.008594512939453125,0.0052204430103302,0.0007876977324485779
1659103347738169900,6.412169921875,0.0068416595458984375,0.006329715251922607,-0.00046167150139808655
1659103347747841000,6.421841064453125,-0.0038604736328125,0.007392093539237976,-0.007657468318939209
1659103347757512000,6.431511962890625,0.002086639404296875,-0.0010325908660888672,-0.011121038347482681
1659103347767183000,6.44118310546875,-0.006182670593261719,-0.00343438982963562,-0.016879163682460785
1659103347776854000,6.45085400390625,-0.00019550323486328125,-0.01053011417388916,0.0033430680632591248
1659103347786525200,6.460525146484375,0.004512786865234375,-0.0021277666091918945,0.007963322103023529
1659103347796196000,6.470196044921875,-0.00026607513427734375,-0.0021871477365493774,0.004238735884428024
1659103347805867300,6.4798671875,0.009150505065917969,0.0036941468715667725,-0.012420661747455597
1659103347815538200,6.4895380859375,-0.0027637481689453125,0.007038891315460205,0.0018428824841976166
1659103347825209300,6.499209228515625,0.004342079162597656,0.008089467883110046,0.0006336420774459839
1659103347834880300,6.50888037109375,0.0019159317016601562,-0.010906144976615906,0.0017112530767917633
1659103347844551400,6.518551513671875,0.0007076263427734375,0.0010033845901489258,-0.0066680386662483215
1659103347854222300,6.528222412109375,-0.0016574859619140625,-0.003728240728378296,0.0016172751784324646
1659103347863893200,6.537893310546875,-0.0039844512939453125,0.0011163502931594849,-0.0043816715478897095
1659103347873564400,6.547564453125,-0.00038909912109375,0.0069716572761535645,0.008602630347013474
1659103347883235300,6.5572353515625,0.007851600646972656,-0.0014171004295349121,0.0013121329247951508
1659103347892906500,6.566906494140625,0.0030164718627929688,-0.0014595389366149902,-0.0011237934231758118
1659103347902577400,6.576577392578125,-0.0017385482788085938,0.003176391124725342,0.008246932178735733
1659103347912248600,6.58624853515625,0.0018215179443359375,0.004262655973434448,0.0009908825159072876
1659103347921919500,6.59591943359375,-0.004090309143066406,-0.02169947326183319,-0.0038198046386241913
1659103347931590700,6.605590576171875,-0.008729934692382812,-0.00949627161026001,-0.004906818270683289
1659103347941261600,6.615261474609375,0.011412620544433594,0.010710582137107849,-0.009617879986763
1659103347950932700,6.6249326171875,0.0041656494140625,0.010437652468681335,-0.007165085524320602
1659103347960603600,6.634603759765625,-0.0017871856689453125,-0.006187230348587036,-0.015341412276029587
1659103347970274800,6.64427490234375,0.0005950927734375,0.004523932933807373,-0.0010278373956680298
1659103347979945700,6.65394580078125,0.005290985107421875,0.009145677089691162,-0.0011275224387645721
1659103347989617000,6.663616943359375,-0.0018568038940429688,0.0066595375537872314,0.0011532306671142578
1659103347999287800,6.673287841796875,-0.0006475448608398438,-0.007663249969482422,0.005723755806684494
1659103348008959000,6.682958984375,-0.0076961517333984375,-0.003986045718193054,0.0008355304598808289
1659103348018630000,6.6926298828125,-0.008744239807128906,-0.008690997958183289,-0.019236832857131958
1659103348028301000,6.702301025390625,-0.006243705749511719,-0.001581624150276184,0.011612258851528168
1659103348037972000,6.711971923828125,-0.00025844573974609375,0.006699696183204651,-0.003964360803365707
1659103348047643100,6.72164306640625,0.004451751708984375,-0.020479530096054077,0.003100767731666565
1659103348057314000,6.73131396484375,0.0008497238159179688,-0.002556934952735901,-0.01701068878173828
1659103348066985200,6.740985107421875,-0.007399559020996094,0.0033875703811645508,-0.007376521825790405
1659103348076656400,6.750656494140625,0.0068416595458984375,0.0056181401014328,-0.0038416460156440735
1659103348086327300,6.760327392578125,0.0020227432250976562,-0.006306394934654236,-0.00863085687160492
1659103348095998500,6.76999853515625,-0.0015430450439453125,-0.013211533427238464,-0.003868069499731064
1659103348105669400,6.77966943359375,-0.005046844482421875,-0.0035884231328964233,-0.010951392352581024
1659103348115340500,6.789340576171875,-0.0061397552490234375,-0.00703836977481842,0.002083349972963333
1659103348125011500,6.799011474609375,0.0033740997314453125,0.0036583244800567627,-0.0015127100050449371
1659103348134682600,6.8086826171875,-0.008446693420410156,-0.004646822810173035,-0.01090267300605774
1659103348144353500,6.818353515625,-0.0035982131958007812,0.0012758821249008179,-0.0096035897731781
1659103348154024700,6.828024658203125,0.005870819091796875,-0.006903991103172302,-0.004769571125507355
1659103348163695600,6.837695556640625,-0.0024614334106445312,-0.00444483757019043,-0.002454616129398346
1659103348173366800,6.84736669921875,0.0069904327392578125,-0.012558028101921082,0.0022595860064029694
1659103348183037700,6.85703759765625,-0.004893302917480469,-0.0017124563455581665,0.0009843409061431885
1659103348192708900,6.866708984375,0.006953239440917969,-0.001692652702331543,0.0032325834035873413
1659103348202379800,6.8763798828125,0.0044841766357421875,0.0006224513053894043,0.01132437214255333
1659103348212051000,6.886051025390625,-0.013235092163085938,-0.001835167407989502,0.0063414499163627625
1659103348221721900,6.895721923828125,0.0034532546997070312,0.0006538480520248413,-0.011498939245939255
1659103348231393000,6.90539306640625,-0.0013103485107421875,-0.004099920392036438,-0.00668836385011673
1659103348241064000,6.91506396484375,0.014006614685058594,-0.00051078200340271,-0.010193932801485062
1659103348250735000,6.924735107421875,-0.0015239715576171875,-0.00633646547794342,-0.0018777064979076385
1659103348260406000,6.934406005859375,-0.0038499832153320312,-0.005091771483421326,-0.006555698812007904
1659103348270077200,6.9440771484375,-0.004962921142578125,-0.001457706093788147,0.0018146447837352753
1659103348279748000,6.953748046875,-0.0025272369384765625,-0.006148174405097961,0.0028719045221805573
1659103348289419300,6.963419189453125,-0.010720252990722656,-0.0037013590335845947,-0.003145955502986908
1659103348299090200,6.973090087890625,0.00004482269287109375,-0.0047678351402282715,-0.0007718317210674286
1659103348308761300,6.98276123046875,-0.003482818603515625,0.002276301383972168,-0.0008466020226478577
1659103348318432300,6.992432373046875,-0.0034246444702148438,0.023434385657310486,-0.005570966750383377
1659103348328103400,7.002103515625,0.0025148391723632812,-0.00525742769241333,-0.000832676887512207
1659103348337774300,7.0117744140625,0.004826545715332031,-0.002825602889060974,-0.007965922355651855
1659103348347445500,7.021445556640625,0.009449005126953125,0.006681427359580994,-0.013832997530698776
1659103348357116400,7.031116455078125,-0.00482940673828125,-0.002736225724220276,-0.003073316067457199
1659103348366787600,7.04078759765625,0.00348663330078125,0.009065628051757812,-0.007786422967910767
1659103348376458500,7.05045849609375,0.005782127380371094,0.004171133041381836,0.000489015132188797
1659103348386129700,7.060129638671875,-0.001373291015625,0.0017114132642745972,-0.008990686386823654
1659103348395800600,7.069800537109375,-0.0072307586669921875,0.006351545453071594,0.006393507122993469
1659103348405471700,7.0794716796875,-0.0035810470581054688,-0.000850677490234375,-0.0055959150195121765
1659103348415143000,7.089142822265625,0.0011873245239257812,0.00024580955505371094,0.006260000169277191
1659103348424813800,7.098813720703125,-0.0035400390625,-0.007945418357849121,-0.009141862392425537
1659103348434485000,7.108485107421875,-0.009363174438476562,0.002709314227104187,-0.0019625909626483917
1659103348444156000,7.118156005859375,-0.002147674560546875,0.0003026127815246582,-0.006751906126737595
1659103348453827000,7.1278271484375,-0.006819725036621094,-0.009037509560585022,-0.00790480524301529
1659103348463498000,7.137498046875,-0.0019989013671875,-0.005422830581665039,-0.01024080440402031
1659103348473169200,7.147169189453125,-0.0007886886596679688,-0.008927613496780396,-0.017188727855682373
1659103348482840000,7.156840087890625,-0.004305839538574219,-0.009907126426696777,-0.009846825152635574
1659103348492511200,7.16651123046875,-0.008937835693359375,-0.006278365850448608,-0.015596330165863037
1659103348502182100,7.17618212890625,-0.006436347961425781,-0.001476570963859558,-0.009428247809410095
1659103348511853300,7.185853271484375,0.0030803680419921875,-0.00140322744846344,-0.010505352169275284
1659103348521524200,7.195524169921875,0.0030269622802734375,0.0069037675857543945,-0.006889142096042633
1659103348531195400,7.2051953125,-0.0005521774291992188,-0.007394552230834961,-0.0033325329422950745
1659103348540866300,7.2148662109375,-0.00054168701171875,0.0009267330169677734,-0.0009838268160820007
1659103348550537500,7.224537353515625,0.0018205642700195312,-0.0014217197895050049,-0.0022315233945846558
1659103348560208400,7.23420849609375,-0.009974479675292969,-0.0026403963565826416,-0.008194167166948318
1659103348569879600,7.243879638671875,0.0031328201293945312,-0.00028082728385925293,0.004794623702764511
1659103348579550500,7.253550537109375,0.008961677551269531,0.0008917450904846191,0.009275943040847778
1659103348589221600,7.2632216796875,-0.0029506683349609375,-0.006219461560249329,0.0055308230221271515
1659103348598892800,7.272892822265625,-0.0017251968383789062,-0.003772154450416565,-0.002916138619184494
1659103348608563700,7.282563720703125,-0.004048347473144531,0.0032835006713867188,-0.008782483637332916
1659103348618235000,7.29223486328125,0.004253387451171875,0.00910225510597229,-0.008696552366018295
1659103348627905800,7.30190576171875,0.0018301010131835938,-0.008762404322624207,-0.007492616772651672
1659103348637577000,7.311576904296875,-0.01820087432861328,0.008993580937385559,0.007838763296604156
1659103348647248000,7.321247802734375,-0.00260162353515625,0.00880672037601471,-0.005262982100248337
1659103348656919000,7.3309189453125,-0.0025587081909179688,0.007417723536491394,-0.009969435632228851
1659103348666590000,7.34058984375,-0.006043434143066406,0.0024940520524978638,0.007727660238742828
1659103348676261000,7.35026123046875,-0.005944252014160156,0.013117805123329163,0.0016866028308868408
1659103348685932000,7.35993212890625,-0.014081001281738281,0.007008343935012817,-0.010221671313047409
1659103348695603200,7.369603271484375,-0.000904083251953125,0.009207233786582947,-0.004228711128234863
1659103348705274400,7.3792744140625,-0.00324249267578125,-0.0038961321115493774,0.005193781107664108
1659103348714945300,7.3889453125,-0.0008344650268554688,-0.007369503378868103,-0.003188513219356537
1659103348724616400,7.398616455078125,0.0003566741943359375,-0.00019657611846923828,-0.011401910334825516
1659103348734287400,7.408287353515625,0.003879547119140625,-0.008465975522994995,0.005169771611690521
1659103348743958500,7.41795849609375,-0.004422187805175781,0.01292814314365387,-0.009066630154848099
1659103348753629400,7.42762939453125,0.005062103271484375,0.00567375123500824,0.0027901045978069305
1659103348763300600,7.437300537109375,0.0038003921508789062,0.007952168583869934,-0.0066980645060539246
1659103348772971500,7.446971435546875,0.0049114227294921875,-0.008573994040489197,0.003942724317312241
1659103348782642700,7.456642578125,-0.008111000061035156,0.004472836852073669,-0.003241579979658127
1659103348792313600,7.466313720703125,-0.0009174346923828125,-0.003817245364189148,-0.010249100625514984
1659103348801984800,7.47598486328125,0.0002727508544921875,0.0045011937618255615,-0.010139387100934982
1659103348811656000,7.485656005859375,-0.00090789794921875,-0.0002883225679397583,-0.019384220242500305
1659103348821326800,7.495326904296875,0.0038118362426757812,-0.0002638697624206543,-0.014387182891368866
1659103348830998000,7.504998046875,0.0002193450927734375,0.007910072803497314,-0.0036474280059337616
1659103348840669000,7.5146689453125,-0.006839752197265625,-0.00646248459815979,0.0010866597294807434
1659103348850340000,7.524340087890625,-0.0008449554443359375,-0.01101219654083252,0.006891820579767227
1659103348860011000,7.534010986328125,-0.010244369506835938,0.01039654016494751,0.004366274923086166
1659103348869682200,7.54368212890625,0.005218505859375,0.002035990357398987,-0.00044496357440948486
1659103348879353000,7.55335302734375,0.02513599395751953,-0.0146198570728302,0.006590031087398529
1659103348889024300,7.563024169921875,-0.005870819091796875,0.0020286589860916138,-0.0006383880972862244
1659103348898695400,7.5726953125,0.00010967254638671875,-0.013365045189857483,-0.0053933970630168915
1659103348908366300,7.582366455078125,-0.014010429382324219,-0.0001816004514694214,0.005223628133535385
1659103348918037500,7.59203759765625,0.02269458770751953,-0.00021569430828094482,-0.009040169417858124
1659103348927708400,7.60170849609375,-0.009448051452636719,0.002132117748260498,-0.019566018134355545
1659103348937379600,7.611379638671875,-0.005761146545410156,-0.007323920726776123,-0.005153510719537735
1659103348947050500,7.621050537109375,-0.004487037658691406,0.006850302219390869,-0.008598417043685913
1659103348956721700,7.6307216796875,-0.005588531494140625,-0.0015077590942382812,-0.005041811615228653
1659103348966392600,7.640392578125,0.010973930358886719,0.005624651908874512,-0.0026068873703479767
1659103348976063700,7.650063720703125,-0.008030891418457031,-0.00044573843479156494,-0.0037426352500915527
1659103348985735000,7.65973486328125,-0.0020132064819335938,-0.004033491015434265,0.002142343670129776
1659103348995405800,7.66940576171875,-0.010213851928710938,-0.013415411114692688,-0.008570551872253418
1659103349005077000,7.679076904296875,-0.005339622497558594,0.0033269524574279785,0.007953949272632599
1659103349014748000,7.688747802734375,-0.0052490234375,-0.014469996094703674,0.0018786005675792694
1659103349024419000,7.698419189453125,-0.0028095245361328125,-0.009531810879707336,-0.004066973924636841
1659103349034090000,7.708090087890625,-0.00040721893310546875,0.007031619548797607,-0.00047384947538375854
1659103349043761200,7.71776123046875,0.0019521713256835938,0.01040656864643097,0.0018272362649440765
1659103349053432300,7.727432373046875,-0.0016117095947265625,-0.006160527467727661,-0.0030822455883026123
1659103349063103200,7.737103271484375,-0.0015869140625,0.005783796310424805,-0.0007370226085186005
1659103349072774400,7.7467744140625,-0.0015592575073242188,0.009179428219795227,-0.016079284250736237
1659103349082445300,7.7564453125,0.0019960403442382812,0.007840946316719055,-0.0017547383904457092
1659103349092116500,7.766116455078125,-0.002742767333984375,-0.0017101168632507324,0.0028642788529396057
1659103349101787400,7.775787353515625,-0.002696990966796875,0.005368635058403015,-0.004301365464925766
1659103349111458600,7.78545849609375,-0.007358551025390625,0.0041224658489227295,-0.0007315017282962799
1659103349121129500,7.79512939453125,0.0033512115478515625,-0.019455894827842712,-0.011367302387952805
1659103349130800600,7.804800537109375,0.0009403228759765625,0.009151697158813477,-0.007709529250860214
1659103349140471600,7.814471435546875,-0.0061359405517578125,-0.009776070713996887,-0.004139892756938934
1659103349150142700,7.824142822265625,0.0022029876708984375,-0.009707808494567871,-0.009986504912376404
1659103349159813600,7.833813720703125,-0.00018596649169921875,-0.00605398416519165,-0.007613088935613632
1659103349169484800,7.84348486328125,-0.009594917297363281,-0.0059334635734558105,-0.00987105444073677
1659103349179156000,7.853156005859375,-0.0012006759643554688,0.0083027184009552,-0.008590497076511383
1659103349188827000,7.862826904296875,-0.0047092437744140625,-0.0024897903203964233,-0.012008648365736008
1659103349198498000,7.872498046875,-0.008161544799804688,-0.0012523233890533447,-0.011898111552000046
1659103349208169000,7.8821689453125,0.006092071533203125,-0.001240462064743042,-0.004759106785058975
1659103349217840000,7.891840087890625,-0.008128166198730469,0.0035060346126556396,0.009435810148715973
1659103349227511000,7.901510986328125,-0.018581390380859375,0.008201494812965393,-0.006048161536455154
1659103349237182200,7.91118212890625,0.0005483627319335938,0.0034643858671188354,-0.0060349442064762115
1659103349246853400,7.920853271484375,0.004069328308105469,-0.00015985965728759766,-0.001316070556640625
1659103349256524300,7.930524169921875,-0.010117530822753906,-0.0001372694969177246,-0.010793495923280716
1659103349266195500,7.940195556640625,0.004168510437011719,-0.004821091890335083,0.01053164154291153
1659103349275866400,7.949866455078125,-0.0017805099487304688,-0.0013338178396224976,-0.007292337715625763
1659103349285537500,7.95953759765625,0.0053081512451171875,-0.006026208400726318,-0.010731451213359833
1659103349295208400,7.96920849609375,-0.0030155181884765625,0.0023007988929748535,-0.008259404450654984
1659103349304879600,7.978879638671875,-0.0006103515625,-0.013097554445266724,-0.009358637034893036
1659103349314550800,7.98855078125,0.0017518997192382812,-0.0070054978132247925,-0.013910602778196335
1659103349324221700,7.9982216796875,-0.0076885223388671875,0.01192578673362732,-0.004328086972236633
1659103349333892900,8.007892822265624,-0.006384849548339844,-0.01769360899925232,0.005095392465591431
1659103349343563800,8.017563720703125,-0.000396728515625,0.0002963542938232422,0.0013344287872314453
1659103349353235000,8.02723486328125,-0.0015687942504882812,-0.010276764631271362,-0.0034235939383506775
1659103349362905900,8.03690576171875,-0.007424354553222656,0.012238875031471252,-0.006898012012243271
1659103349372577000,8.046576904296876,-0.0014171600341796875,0.00020457804203033447,-0.002079218626022339
1659103349382248200,8.056248291015624,-0.00257110595703125,0.014395788311958313,-0.0009271763265132904
1659103349391919000,8.065919189453124,0.0021753311157226562,0.00008650124073028564,0.0013814717531204224
1659103349401590300,8.07559033203125,-0.0025653839111328125,0.0012245774269104004,0.014241218566894531
1659103349411261200,8.08526123046875,-0.008405685424804688,-0.004629611968994141,-0.004849571734666824
1659103349420932400,8.094932373046875,-0.001209259033203125,0.0060554444789886475,-0.007239125669002533
1659103349430603500,8.104603515625,-0.0035409927368164062,0.0035928338766098022,-0.002386808395385742
1659103349440274400,8.1142744140625,-0.0023050308227539062,-0.008297368884086609,-0.003582574427127838
1659103349449945600,8.123945556640624,0.0071468353271484375,0.0047447532415390015,0.0034755393862724304
1659103349459616500,8.133616455078124,-0.002384185791015625,-0.011841893196105957,-0.0001416914165019989
1659103349469287700,8.14328759765625,-0.0035190582275390625,-0.0011220425367355347,-0.0014040619134902954
1659103349478958800,8.152958740234375,0.0024232864379882812,-0.008256286382675171,-0.012027982622385025
1659103349488629800,8.162629638671875,0.009443283081054688,0.002403959631919861,0.0011116042733192444
1659103349498301000,8.172301025390626,-0.00012683868408203125,0.00003072619438171387,0.008120667189359665
1659103349507971800,8.181971923828126,-0.0036535263061523438,0.003550618886947632,-0.005073975771665573
1659103349517643000,8.19164306640625,-0.0012388229370117188,-0.0001035928726196289,-0.0003425963222980499
1659103349527314000,8.20131396484375,0.0011320114135742188,-0.004731073975563049,-0.021687831729650497
1659103349536985000,8.210985107421875,-0.00124359130859375,-0.004490017890930176,0.0010516978800296783
1659103349546656300,8.22065625,-0.0000438690185546875,0.006078377366065979,-0.016646146774291992
1659103349556327200,8.2303271484375,-0.009455680847167969,-0.003443285822868347,0.007101632654666901
1659103349565998300,8.239998291015626,0.00011348724365234375,0.009575068950653076,0.0010126568377017975
1659103349575669200,8.249669189453124,-0.005770683288574219,0.0034676790237426758,-0.008531410247087479
1659103349585340400,8.25934033203125,-0.011555671691894531,-0.011950269341468811,-0.006097365170717239
1659103349595011600,8.269011474609375,0.003931999206542969,0.001152724027633667,0.003384113311767578
1659103349604682500,8.2786826171875,-0.0008382797241210938,-0.013078257441520691,-0.00020375847816467285
1659103349614353700,8.288353759765625,-0.0043544769287109375,0.014218345284461975,-0.007375951856374741
1659103349624024600,8.298024658203126,-0.010164260864257812,0.0069139450788497925,-0.006135620176792145
1659103349633695700,8.30769580078125,-0.013525009155273438,0.004494071006774902,-0.00018224120140075684
1659103349643366700,8.31736669921875,0.009053230285644531,-0.006149306893348694,-0.00023894011974334717
1659103349653037800,8.327037841796875,0.015960693359375,-0.00020182132720947266,-0.003796275705099106
1659103349662708700,8.336708740234375,-0.0019540786743164062,-0.004827678203582764,-0.021411985158920288
1659103349672380000,8.3463798828125,-0.0030975341796875,0.004655689001083374,0.003533344715833664
1659103349682051000,8.356051025390625,-0.017164230346679688,0.006950676441192627,-0.006026238203048706
1659103349691722000,8.365721923828126,0.012532234191894531,0.005649656057357788,-0.008338481187820435
1659103349701393200,8.37539306640625,-0.011205673217773438,0.013782203197479248,-0.008258577436208725
1659103349711064000,8.38506396484375,-0.0063152313232421875,-0.0005165785551071167,-0.00585489347577095
1659103349720735200,8.3947353515625,-0.0026807785034179688,0.010100051760673523,-0.008141487836837769
1659103349730406400,8.404406494140625,0.011484146118164062,0.0015736669301986694,0.01193448156118393
1659103349740077300,8.414077392578125,0.003055572509765625,-0.004286468029022217,0.002264738082885742
1659103349749748500,8.42374853515625,-0.013467788696289062,0.0040972232818603516,-0.008448820561170578
1659103349759419400,8.43341943359375,0.0032281875610351562,-0.008978396654129028,-0.006016820669174194
1659103349769090600,8.443090576171874,-0.0038824081420898438,-0.0006875693798065186,-0.008414071053266525
1659103349778761700,8.45276171875,-0.0026426315307617188,-0.015921786427497864,0.009314171969890594
1659103349788432600,8.4624326171875,0.002105712890625,-0.006196364760398865,0.0008638948202133179
1659103349798103800,8.472103759765625,-0.00028324127197265625,-0.006101682782173157,0.006701290607452393
1659103349807774700,8.481774658203125,0.0008983612060546875,-0.00012649595737457275,-0.012322846800088882
1659103349817446000,8.49144580078125,-0.0014696121215820312,-0.005987092852592468,-0.005119055509567261
1659103349827117000,8.501116943359374,-0.00968170166015625,0.0011626780033111572,-0.012095961719751358
1659103349836788000,8.5107880859375,-0.0001068115234375,0.006959930062294006,-0.003690294921398163
1659103349846459100,8.520459228515625,-0.0012807846069335938,0.009159639477729797,-0.016629714518785477
1659103349856130000,8.530130126953125,0.003444671630859375,0.01143684983253479,0.008322782814502716
1659103349865801200,8.53980126953125,-0.000141143798828125,0.010032415390014648,-0.002407565712928772
1659103349875472400,8.549472412109376,-0.011899948120117188,0.016801148653030396,-0.0035758092999458313
1659103349885143300,8.559143310546874,0.0012388229370117188,-0.0058118849992752075,-0.009429123252630234
1659103349894814500,8.568814453125,0.004746437072753906,-0.000989079475402832,0.0071687474846839905
1659103349904485400,8.5784853515625,0.00231170654296875,-0.004396706819534302,-0.00833309069275856
1659103349914156500,8.588156494140625,-0.009493827819824219,0.007489562034606934,0.002277284860610962
1659103349923827700,8.59782763671875,-0.0010995864868164062,-0.00558529794216156,0.0033268891274929047
1659103349933498600,8.60749853515625,-0.0022573471069335938,-0.007853999733924866,0.003211040049791336
1659103349943169800,8.617169677734376,-0.0033960342407226562,0.0028278976678848267,-0.00866692140698433
1659103349952841000,8.626841064453124,0.002544403076171875,-0.0031673312187194824,-0.008553702384233475
1659103349962512000,8.636511962890625,0.0072078704833984375,0.00981779396533966,0.002088189125061035
1659103349972183000,8.64618310546875,0.011793136596679688,0.008468851447105408,-0.0038893744349479675
1659103349981854000,8.65585400390625,0.005715370178222656,0.007113710045814514,-0.005033593624830246
1659103349991525000,8.665525146484375,-0.0002651214599609375,0.008276939392089844,-0.010891791433095932
1659103350001196000,8.675196044921876,-0.0026121139526367188,-0.0025433599948883057,-0.014298729598522186
1659103350010867200,8.6848671875,-0.007275581359863281,0.002224847674369812,-0.004679195582866669
1659103350020538000,8.6945380859375,-0.009510040283203125,0.009323522448539734,-0.004631757736206055
1659103350030209300,8.704209228515625,0.005942344665527344,0.011540859937667847,-0.0011133775115013123
1659103350039880400,8.71388037109375,0.0046672821044921875,-0.0004247725009918213,0.0012275762856006622
1659103350049551400,8.72355126953125,-0.000118255615234375,-0.009838029742240906,-0.0071157366037368774
1659103350059222500,8.733222412109376,-0.002468109130859375,-0.0014473497867584229,0.005884990096092224
1659103350068893400,8.7428935546875,-0.0024242401123046875,-0.006280362606048584,-0.002565130591392517
1659103350078564600,8.752564697265624,-0.005913734436035156,-0.0026832371950149536,0.004449564963579178
1659103350088235800,8.76223583984375,-0.003459930419921875,-0.008615240454673767,0.00196206197142601
1659103350097906700,8.77190673828125,-0.006931304931640625,-0.0037746578454971313,-0.0063378289341926575
1659103350107577900,8.781577880859375,-0.011522293090820312,-0.0013387352228164673,-0.007438544183969498
1659103350117248800,8.791248779296875,0.007494926452636719,0.011530652642250061,-0.006225649267435074
1659103350126920000,8.800919921875,0.0026655197143554688,-0.008698910474777222,-0.017889995127916336
1659103350136591000,8.810591064453124,-0.007967948913574219,0.004407048225402832,-0.01062123104929924
1659103350146262000,8.820261962890624,-0.006656646728515625,-0.002819344401359558,-0.0045924000442028046
1659103350155933200,8.82993310546875,-0.0077228546142578125,-0.005105525255203247,-0.002222646027803421
1659103350165604400,8.839604248046875,0.0006437301635742188,-0.001613616943359375,-0.0022731535136699677
1659103350175275300,8.849275146484375,-0.005249977111816406,0.000728994607925415,-0.011735264211893082
1659103350184946400,8.858946533203126,-0.009867668151855469,-0.005202755331993103,-0.010422926396131516
1659103350194617300,8.868617431640626,0.0020608901977539062,-0.014536798000335693,-0.005661405622959137
1659103350204288500,8.87828857421875,-0.00267791748046875,0.006816372275352478,-0.004506636410951614
1659103350213959700,8.887959716796875,-0.0038099288940429688,0.0066940635442733765,-0.0033432766795158386
1659103350223630600,8.897630615234375,0.000957489013671875,0.006659150123596191,-0.006877366453409195
1659103350233301800,8.9073017578125,0.0032949447631835938,0.004186943173408508,-0.008025407791137695
1659103350242973000,8.916972900390626,-0.012056350708007812,0.004193946719169617,-0.006803404539823532
1659103350252643800,8.926643798828126,-0.0024471282958984375,0.00420069694519043,-0.0091603584587574
1659103350262315000,8.93631494140625,-0.0012292861938476562,-0.0005839318037033081,-0.0032135508954524994
1659103350271986000,8.94598583984375,0.0023221969604492188,-0.004169359803199768,-0.007954098284244537
1659103350281657000,8.955656982421875,0.0034589767456054688,-0.004080086946487427,-0.00552830845117569
1659103350291328300,8.965328369140625,0.00811004638671875,0.006453558802604675,-0.0008178316056728363
1659103350300999200,8.974999267578125,-0.002613067626953125,-0.0007501840591430664,-0.013777278363704681
1659103350310670300,8.98467041015625,0.0009603500366210938,0.0015780329704284668,-0.005429085344076157
1659103350320341200,8.99434130859375,-0.0002307891845703125,-0.006749153137207031,-0.0006632469594478607
1659103350330012400,9.004012451171874,-0.009641647338867188,0.001647070050239563,-0.008946530520915985
1659103350339683300,9.013683349609375,0.0081634521484375,-0.0018045008182525635,0.004112541675567627
1659103350349354500,9.0233544921875,0.008027076721191406,-0.0006065219640731812,0.003984957933425903
1659103350359025700,9.033025634765625,0.0008344650268554688,-0.01475130021572113,-0.0032000020146369934
1659103350368696600,9.042696533203125,0.0019969940185546875,0.005542978644371033,-0.007940102368593216
1659103350378367700,9.05236767578125,-0.000392913818359375,0.0008783936500549316,0.006277993321418762
1659103350388038700,9.06203857421875,-0.00038433074951171875,0.004270002245903015,0.0013772211968898773
1659103350397709800,9.071709716796875,-0.00037860870361328125,-0.0016640126705169678,-0.005708619952201843
1659103350407381000,9.081381103515625,-0.0039014816284179688,0.011296048760414124,-0.00923178717494011
1659103350417052000,9.091052001953125,-0.007366180419921875,-0.0006942898035049438,-0.005637411028146744
1659103350426723000,9.10072314453125,-0.0072422027587890625,0.0004561096429824829,-0.007958143949508667
1659103350436394200,9.110394287109376,-0.00006389617919921875,0.0028497427701950073,-0.009090196341276169
1659103350446065200,9.120065185546874,-0.007121086120605469,0.002765163779258728,-0.024291858077049255
1659103350455736300,9.129736328125,0.007114410400390625,-0.0019386708736419678,-0.01453562080860138
1659103350465407500,9.139407470703125,-0.005946159362792969,-0.01129847764968872,-0.007294930517673492
1659103350475078400,9.149078369140625,-0.01055145263671875,0.0005891025066375732,-0.008379686623811722
1659103350484749600,9.15874951171875,0.00021076202392578125,-0.004106670618057251,-0.0059176236391067505
1659103350494420500,9.16842041015625,-0.005673408508300781,-0.00642867386341095,-0.002293642610311508
1659103350504091600,9.178091552734376,-0.0055751800537109375,0.0017624050378799438,0.0024755820631980896
1659103350513762800,9.1877626953125,-0.007837295532226562,-0.0017764419317245483,-0.0023590996861457825
1659103350523433700,9.197433837890625,-0.00299835205078125,-0.0018981993198394775,-0.0024371743202209473
1659103350533105000,9.20710498046875,-0.005301475524902344,-0.011258527636528015,-0.014192484319210052
1659103350542776000,9.216776123046875,-0.005213737487792969,0.017212405800819397,0.007216479629278183
1659103350552447000,9.226447021484375,-0.00042247772216796875,0.00638560950756073,-0.0011703036725521088
1659103350562118100,9.2361181640625,-0.003948211669921875,-0.004203766584396362,0.00349537655711174
1659103350571789000,9.2457890625,0.0031757354736328125,0.006474196910858154,-0.0060065388679504395
1659103350581460200,9.255460205078125,0.0019435882568359375,-0.002997487783432007,0.004592239856719971
1659103350591131100,9.265131103515625,0.0019102096557617188,0.008836686611175537,0.00568811222910881
1659103350600802300,9.27480224609375,-0.0028285980224609375,-0.0018789023160934448,-0.006173431873321533
1659103350610473500,9.284473388671875,-0.0039577484130859375,-0.008915126323699951,-0.004982281476259232
1659103350620144400,9.294144287109376,-0.0027170181274414062,-0.012247517704963684,-0.002576839178800583
1659103350629815600,9.303815673828124,-0.0073757171630859375,0.005509600043296814,0.0009934790432453156
1659103350639486500,9.313486572265624,0.008042335510253906,0.0029989928007125854,-0.0038178525865077972
1659103350649157600,9.32315771484375,0.0043773651123046875,0.0018205344676971436,0.007949426770210266
1659103350658828800,9.332828857421875,-0.005103111267089844,0.019257664680480957,-0.004063814878463745
1659103350668499700,9.342499755859375,0.007925987243652344,0.004667699337005615,0.0017688870429992676
1659103350678171000,9.3521708984375,0.013676643371582031,-0.017800122499465942,0.001680377870798111
1659103350687842000,9.361842041015626,0.0005064010620117188,-0.008100241422653198,-0.005579493939876556
1659103350697513000,9.371512939453124,0.0040264129638671875,0.001466318964958191,-0.013810016214847565
1659103350707184000,9.38118408203125,0.007489204406738281,-0.0044777244329452515,-0.006637740880250931
1659103350716855300,9.390855224609375,-0.004401206970214844,-0.004412099719047546,0.0004421435296535492
1659103350726526200,9.400526123046875,-0.0019769668579101562,0.01100371778011322,0.00034588202834129333
1659103350736197400,9.410197265625,-0.005474090576171875,-0.0021007955074310303,0.012074973434209824
1659103350745868500,9.41986865234375,0.0016736984252929688,-0.0032221972942352295,-0.007008176296949387
1659103350755539500,9.42953955078125,0.0028238296508789062,-0.011412635445594788,-0.003422349691390991
1659103350765210600,9.439210693359374,-0.004283905029296875,-0.004143834114074707,-0.006925936788320541
1659103350774881500,9.448881591796875,-0.001861572265625,0.0007080584764480591,0.0048951655626297
1659103350784552700,9.458552734375,-0.0006542205810546875,-0.01219649612903595,0.005988016724586487
1659103350794223900,9.468223876953125,0.0005321502685546875,-0.001385331153869629,-0.005965385586023331
1659103350803894800,9.477894775390626,-0.0030059814453125,0.013866022229194641,0.009367763996124268
1659103350813566000,9.48756591796875,0.005280494689941406,-0.00875525176525116,-0.006113700568675995
1659103350823236900,9.49723681640625,-0.0030431747436523438,0.003146827220916748,-0.0013364627957344055
1659103350832908000,9.506907958984375,0.008770942687988281,0.010229840874671936,0.0010068640112876892
1659103350842579000,9.516578857421875,-0.0043163299560546875,-0.001714363694190979,-0.00148092582821846
1659103350852250000,9.52625,0.006340980529785156,0.0030970126390457153,-0.007397640496492386
1659103350861921300,9.53592138671875,-0.0031766891479492188,0.010095357894897461,-0.001452382653951645
1659103350871592200,9.54559228515625,0.007464408874511719,0.007593810558319092,0.009071171283721924
1659103350881263400,9.555263427734374,-0.009133338928222656,0.0016615241765975952,-0.014669828116893768
1659103350890934500,9.5649345703125,-0.004273414611816406,-0.001990094780921936,0.012543939054012299
1659103350900605400,9.57460546875,-0.004202842712402344,-0.0054383426904678345,-0.010050639510154724
1659103350910276600,9.584276611328125,-0.0041332244873046875,-0.004179820418357849,0.011177308857440948
1659103350919947800,9.59394775390625,-0.0028896331787109375,-0.00291404128074646,-0.011365324258804321
1659103350929618700,9.60361865234375,-0.012253761291503906,0.00653742253780365,0.003972332924604416
1659103350939289900,9.613289794921876,0.0044193267822265625,-0.004111632704734802,0.01322900876402855
1659103350948961000,9.6229609375,-0.0027141571044921875,-0.0016701072454452515,0.0059483349323272705
1659103350958632000,9.6326318359375,-0.0038499832153320312,0.004373863339424133,0.004641510546207428
1659103350968303000,9.64230322265625,-0.004963874816894531,-0.012092724442481995,0.009239502251148224
1659103350977974300,9.651974365234375,-0.0001735687255859375,-0.013133257627487183,0.006759028881788254
1659103350987645200,9.661645263671875,-0.010761260986328125,-0.0022489577531814575,-0.0016466155648231506
1659103350997316400,9.67131640625,-0.00469970703125,-0.0057211220264434814,-0.0052368007600307465
1659103351006987500,9.680987548828124,-0.010503768920898438,0.004953488707542419,-0.004034116864204407
1659103351016658400,9.690658447265625,-0.0044460296630859375,-0.010431796312332153,-0.004082921892404556
1659103351026329600,9.70032958984375,0.008566856384277344,0.0074660032987594604,0.005309354513883591
1659103351036000500,9.71000048828125,0.003719329833984375,-0.000902712345123291,-0.0007510557770729065
1659103351045671700,9.719671630859375,0.003658294677734375,0.009634703397750854,0.006259903311729431
1659103351055342600,9.729342529296876,-0.0034618377685546875,-0.011710956692695618,-0.009254593402147293
1659103351065013800,9.739013671875,-0.005759239196777344,-0.006761759519577026,-0.004483353346586227
1659103351074685000,9.748684814453124,0.0049228668212890625,0.0016627460718154907,0.00029318779706954956
1659103351084355800,9.75835595703125,0.00013446807861328125,-0.004199206829071045,-0.013861250132322311
1659103351094027000,9.768027099609375,-0.0057525634765625,0.001830175518989563,-0.010130688548088074
1659103351103698200,9.7776982421875,-0.000949859619140625,-0.0052677541971206665,-0.004138536751270294
1659103351113369000,9.787369140625,0.0002422332763671875,0.004223346710205078,-0.006423883140087128
1659103351123040300,9.797040283203126,0.00023937225341796875,0.0029107481241226196,-0.00046567991375923157
1659103351132711400,9.80671142578125,0.004940032958984375,0.011117294430732727,-0.002870578318834305
1659103351142382300,9.81638232421875,0.0013284683227539062,-0.003251120448112488,-0.00529104471206665
1659103351152053500,9.826053466796875,0.000133514404296875,-0.005672857165336609,-0.004087451845407486
1659103351161724700,9.835724609375,0.011898040771484375,-0.0032626092433929443,-0.019316166639328003
1659103351171395600,9.8453955078125,0.0069942474365234375,0.003784745931625366,-0.01081932708621025
1659103351181066800,9.855066650390626,-0.007239341735839844,0.007185205817222595,-0.014228809624910355
1659103351190738000,9.864738037109374,-0.00711822509765625,-0.012943282723426819,-0.015256352722644806
1659103351200408800,9.874408935546874,0.00006008148193359375,0.014322832226753235,-0.004443708807229996
1659103351210080000,9.884080078125,-0.016412734985351562,0.014103621244430542,-0.002106267958879471
1659103351219751200,9.893751220703125,-0.0067272186279296875,0.004419565200805664,-0.011599641293287277
1659103351229422000,9.903422119140625,0.014558792114257812,-0.007285192608833313,-0.011409703642129898
1659103351239093200,9.91309326171875,0.014315605163574219,-0.007144138216972351,-0.004192601889371872
1659103351248764200,9.92276416015625,-0.0035696029663085938,0.011732891201972961,-0.0030907951295375824
1659103351258435300,9.932435302734374,-0.011746406555175781,-0.00956234335899353,0.007517743855714798
1659103351268106200,9.942106201171875,-0.009199142456054688,0.008263722062110901,0.008508529514074326
1659103351277777400,9.95177734375,0.012127876281738281,-0.004709795117378235,0.0012488588690757751
1659103351287448600,9.961448486328125,0.002513885498046875,0.0023334622383117676,-0.00359388068318367
1659103351297119500,9.971119384765625,-0.005761146545410156,-0.007154569029808044,-0.00006495416164398193
1659103351306790700,9.980790771484376,-0.003314971923828125,0.004805907607078552,-0.0001249350607395172
1659103351316461800,9.9904619140625,-0.009142875671386719,0.008275255560874939,-0.007240045815706253
1659103351326132700,10.0001328125,-0.0007572174072265625,-0.008313491940498352,-0.011884979903697968
1659103351335804000,10.009803955078125,0.0016069412231445312,0.010667964816093445,-0.0058662742376327515
1659103351345475000,10.01947509765625,-0.009007453918457031,0.006952166557312012,-0.01876872032880783
1659103351355146000,10.02914599609375,0.006436347961425781,-0.008494913578033447,0.008515391498804092
1659103351364817200,10.038817138671876,0.0016202926635742188,-0.011777222156524658,0.003609221428632736
1659103351374488300,10.04848828125,-0.0007600784301757812,-0.002149537205696106,0.002312205731868744
1659103351384159200,10.0581591796875,0.00395965576171875,-0.015063762664794922,0.01159656047821045
1659103351393830400,10.067830322265625,-0.004340171813964844,-0.02667135000228882,0.0007281750440597534
1659103351403501600,10.07750146484375,-0.0007381439208984375,-0.0015579164028167725,0.010069429874420166
1659103351413172500,10.08717236328125,-0.0007266998291015625,-0.008542641997337341,-0.008953820914030075
1659103351422843600,10.09684375,0.003993034362792969,0.015092074871063232,0.006430484354496002
1659103351432514800,10.106514892578126,-0.0019550323486328125,0.02539128065109253,-0.0125327929854393
1659103351442185700,10.116185791015624,-0.00897979736328125,0.014313995838165283,-0.005325470119714737
1659103351451857000,10.12585693359375,0.0005817413330078125,0.03289034962654114,0.0052639879286289215
1659103351461527800,10.13552783203125,-0.00531005859375,0.03465789556503296,-0.016059931367635727
1659103351471199000,10.145198974609375,-0.0005140304565429688,0.019897133111953735,-0.025290872901678085
1659103351480870000,10.154869873046875,0.003021240234375,0.011407122015953064,-0.014340139925479889
1659103351490541000,10.164541015625,-0.0017328262329101562,-0.018288612365722656,-0.021217621862888336
1659103351500212200,10.174212158203124,-0.008763313293457031,-0.01914048194885254,-0.008011005818843842
1659103351509883100,10.183883056640624,-0.012148857116699219,-0.03168562054634094,-0.004434917122125626
1659103351519554300,10.19355419921875,-0.0025339126586914062,-0.02766561508178711,0.0026652663946151733
1659103351529225500,10.2032255859375,-0.0024919509887695312,-0.023683831095695496,0.0107964389026165
1659103351538896400,10.212896484375,-0.0012731552124023438,-0.025679543614387512,0.009378965944051743
1659103351548567600,10.222567626953126,0.00463104248046875,-0.008789807558059692,-0.00024950504302978516
1659103351558238700,10.23223876953125,0.006903648376464844,-0.014420554041862488,0.0020756982266902924
1659103351567909600,10.24190966796875,-0.00262451171875,0.009397193789482117,-0.022725854068994522
1659103351577580800,10.251580810546875,-0.0025815963745117188,0.016318917274475098,-0.001231662929058075
1659103351587252000,10.261251953125,-0.0013608932495117188,0.017157822847366333,0.0034357011318206787
1659103351596923000,10.2709228515625,0.0010137557983398438,0.02515539526939392,-0.0025351345539093018
1659103351606594000,10.280593994140625,-0.009592056274414062,0.021197989583015442,-0.003757558763027191
1659103351616265200,10.29026513671875,-0.009433746337890625,0.018540173768997192,-0.028488360345363617
1659103351625936100,10.29993603515625,-0.0010423660278320312,-0.006454974412918091,0.0048679448664188385
1659103351635607300,10.309607177734375,-0.001026153564453125,-0.005151018500328064,-0.012919280678033829
1659103351645278500,10.319278564453125,0.0036954879760742188,-0.003812074661254883,-0.00926341861486435
1659103351654949400,10.328949462890625,-0.0022478103637695312,-0.012049421668052673,-0.016226891428232193
1659103351664620500,10.33862060546875,-0.002208709716796875,-0.010766193270683289,-0.0018978118896484375
1659103351674291500,10.34829150390625,-0.004527091979980469,-0.01874527335166931,-0.008984718471765518
1659103351683962600,10.357962646484374,-0.005629539489746094,0.005116075277328491,0.011075489223003387
1659103351693633800,10.3676337890625,0.00975799560546875,-0.02077507972717285,0.010858338326215744
1659103351703304700,10.3773046875,0.00724029541015625,-0.00038057565689086914,-0.000027582049369812012
1659103351712976000,10.386975830078125,0.0012369155883789062,-0.00038295984268188477,-0.005969192832708359
1659103351722647000,10.39664697265625,0.001216888427734375,0.004263579845428467,0.005863785743713379
1659103351732318000,10.40631787109375,-0.008214950561523438,0.013595551252365112,-0.0072633326053619385
1659103351741989000,10.415989013671876,0.00368499755859375,0.018094614148139954,-0.004849046468734741
1659103351751660300,10.425660400390624,-0.0022602081298828125,0.0237237811088562,-0.01188609004020691
1659103351761331200,10.435331298828125,0.0013074874877929688,0.010349974036216736,-0.018863514065742493
1659103351771002400,10.44500244140625,0.0024614334106445312,0.014874652028083801,-0.008077573031187057
1659103351780673500,10.454673583984375,-0.0058155059814453125,-0.007734939455986023,-0.012765523046255112
1659103351790344700,10.4643447265625,-0.00218963623046875,-0.029967695474624634,-0.009168535470962524
1659103351800015600,10.474015625,0.00490570068359375,-0.010624930262565613,-0.005546022206544876
1659103351809686800,10.483686767578124,0.008352279663085938,-0.009223118424415588,-0.004308324307203293
1659103351819357700,10.493357666015624,-0.001201629638671875,-0.020785704255104065,-0.018413208425045013
1659103351829028900,10.50302880859375,-0.008240699768066406,-0.018066540360450745,-0.00645831972360611
1659103351838700000,10.512699951171875,0.008364677429199219,-0.014159142971038818,0.012413814663887024
1659103351848371000,10.522370849609375,-0.0023651123046875,0.006125271320343018,-0.00196978822350502
1659103351858042000,10.5320419921875,-0.008204460144042969,0.0023422837257385254,-0.01376272737979889
1659103351867713000,10.541713134765626,-0.002185821533203125,0.005823671817779541,0.0004947520792484283
1659103351877384200,10.55138427734375,0.0037317276000976562,-0.006018891930580139,-0.004338771104812622
1659103351887055400,10.561055419921875,-0.0022144317626953125,0.027099385857582092,-0.01373794674873352
1659103351896726300,10.570726318359375,-0.0045299530029296875,0.03013952076435089,-0.005335409194231033
1659103351906397400,10.5803974609375,0.015545845031738281,0.021392881870269775,-0.005307536572217941
1659103351916068600,10.590068603515626,-0.005890846252441406,0.004585236310958862,-0.002927195280790329
1659103351925739800,10.59973974609375,-0.008144378662109375,-0.0025588572025299072,-0.0029672905802726746
1659103351935410700,10.60941064453125,-0.010361671447753906,-0.0025534331798553467,-0.010036367923021317
1659103351945081900,10.619081787109375,-0.004306793212890625,-0.010726675391197205,-0.015812508761882782
1659103351954753000,10.6287529296875,-0.006587982177734375,-0.017615318298339844,-0.008520670235157013
1659103351964424000,10.638423828125,0.000583648681640625,-0.022178933024406433,-0.004938121885061264
1659103351974095000,10.64809521484375,-0.007660865783691406,-0.014787822961807251,-0.00023880600929260254
1659103351983766300,10.657766357421876,0.000701904296875,-0.01569819450378418,0.012674465775489807
1659103351993437200,10.667437255859374,0.0065708160400390625,-0.010711044073104858,-0.0005383379757404327
1659103352003108400,10.6771083984375,0.004108428955078125,0.004752606153488159,0.0018195100128650665
1659103352012779300,10.686779296875,-0.0030183792114257812,0.005841150879859924,0.0006099902093410492
1659103352022450400,10.696450439453125,0.0029144287109375,0.015089854598045349,-0.008871655911207199
1659103352032121600,10.70612158203125,0.005219459533691406,0.012476697564125061,0.0030381977558135986
1659103352041792500,10.71579248046875,-0.00428009033203125,0.004024595022201538,0.006456591188907623
1659103352051463700,10.725463623046876,-0.0065593719482421875,0.013275206089019775,-0.0136815644800663
1659103352061134800,10.735134765625,-0.0005674362182617188,0.01304537057876587,0.0017530620098114014
1659103352070805800,10.7448056640625,0.0029726028442382812,0.0033219754695892334,-0.012453515082597733
1659103352080477000,10.754476806640625,-0.005312919616699219,0.0009050816297531128,-0.015834391117095947
1659103352090148000,10.764148193359375,-0.000518798828125,-0.006177425384521484,-0.012100104242563248
1659103352099819000,10.773819091796875,0.0006656646728515625,-0.01543782651424408,0.016277845948934555
1659103352109490200,10.783490234375,0.0030069351196289062,-0.014012634754180908,-0.002819027751684189
1659103352119161300,10.793161376953124,0.001781463623046875,-0.007933810353279114,0.013639520853757858
1659103352128832300,10.802832275390625,0.0041027069091796875,-0.0007231384515762329,-0.007824666798114777
1659103352138503400,10.81250341796875,-0.0065555572509765625,-0.013604283332824707,0.0075388140976428986
1659103352148174600,10.822174560546875,-0.0029163360595703125,-0.014562740921974182,-0.004411250352859497
1659103352157845500,10.831845458984375,0.0077190399169921875,0.00569935142993927,-0.0043709613382816315
1659103352167516700,10.8415166015625,-0.005352020263671875,-0.0037876665592193604,0.0074353814125061035
1659103352177187800,10.851187744140624,0.004150390625,0.0044734179973602295,-0.005661614239215851
1659103352186858800,10.860858642578124,0.0005512237548828125,0.0079478919506073,-0.01265796646475792
1659103352196530000,10.870530029296875,-0.0018157958984375,0.011478587985038757,-0.009034287184476852
1659103352206200800,10.880200927734375,0.007624626159667969,-0.0004575401544570923,-0.0007644444704055786
1659103352215872000,10.8898720703125,0.00632476806640625,0.007662683725357056,-0.004340827465057373
1659103352225543200,10.899543212890626,0.0015115737915039062,-0.0018285363912582397,-0.0007987767457962036
1659103352235214000,10.909214111328126,-0.005574226379394531,-0.006484314799308777,-0.019669387489557266
1659103352244885200,10.91888525390625,-0.0054836273193359375,-0.00868062674999237,-0.008811693638563156
1659103352254556400,10.928556396484375,-0.0030393600463867188,-0.023810312151908875,-0.011077485978603363
1659103352264227300,10.938227294921875,-0.007694244384765625,-0.00695173442363739,-0.0038659237325191498
1659103352273898500,10.9478984375,-0.0016841888427734375,-0.0009621083736419678,-0.013272307813167572
1659103352283569700,10.957569580078125,0.004225730895996094,-0.008013606071472168,-0.010786373168230057
1659103352293240800,10.96724072265625,0.0029811859130859375,-0.003268226981163025,-0.01657649502158165
1659103352302911700,10.976911865234374,-0.010010719299316406,0.0015120357275009155,0.011819049715995789
1659103352312583000,10.9865830078125,-0.0063152313232421875,0.0015352517366409302,-0.01429085060954094
1659103352322254000,10.996254150390625,0.0043792724609375,0.013237029314041138,-0.001143377274274826
1659103352331925000,11.005925048828125,-0.005106925964355469,0.005977362394332886,-0.007037896662950516
1659103352341596200,11.01559619140625,-0.008551597595214844,0.016485735774040222,0.007108848541975021
1659103352351267000,11.02526708984375,-0.009585380554199219,0.002027764916419983,-0.0072148144245147705
1659103352360938200,11.034938232421876,0.0070476531982421875,0.00189991295337677,0.0022866614162921906
1659103352370609400,11.044609375,0.0057525634765625,0.012476533651351929,-0.002458706498146057
1659103352380280300,11.0542802734375,-0.001399993896484375,-0.007796972990036011,-0.009478598833084106
1659103352389951500,11.063951416015625,0.0021514892578125,-0.014649376273155212,-0.0022373683750629425
1659103352399622700,11.07362255859375,-0.008471488952636719,0.0008516907691955566,-0.0010263286530971527
1659103352409293600,11.08329345703125,-0.0036258697509765625,-0.0003192126750946045,-0.009275741875171661
1659103352418964700,11.09296484375,-0.010624885559082031,-0.015559762716293335,-0.0032700039446353912
1659103352428636000,11.102635986328124,-0.008095741271972656,-0.0023396164178848267,-0.004509340971708298
1659103352438306800,11.112306884765625,-0.004433631896972656,0.015394315123558044,-0.005672380328178406
1659103352447978000,11.12197802734375,0.001522064208984375,0.016362354159355164,0.0014491006731987
1659103352457649200,11.131649169921875,-0.004385948181152344,0.0090218186378479,0.003688354045152664
1659103352467320000,11.141320068359375,0.000392913818359375,0.010039344429969788,-0.011726275086402893
1659103352476991200,11.1509912109375,-0.0007915496826171875,-0.0006393194198608398,0.009558122605085373
1659103352486662400,11.160662353515624,0.0027484893798828125,0.010064691305160522,-0.0035742446780204773
1659103352496333600,11.17033349609375,-0.007885932922363281,0.008683264255523682,-0.010661698877811432
1659103352506004500,11.18000439453125,0.0016565322875976562,0.006205230951309204,-0.016426730901002884
1659103352515675600,11.189675537109375,-0.013667106628417969,0.009679630398750305,-0.0009178519248962402
1659103352525346600,11.1993466796875,-0.0040264129638671875,-0.0034317374229431152,0.003799937665462494
1659103352535017700,11.209017822265626,-0.007489204406738281,-0.009294211864471436,-0.008116964250802994
1659103352544689000,11.21868896484375,-0.0026578903198242188,0.007265567779541016,-0.009274829179048538
1659103352554359800,11.22835986328125,-0.0037908554077148438,-0.0034523308277130127,0.013145193457603455
1659103352564031000,11.238031005859375,0.0056819915771484375,-0.002141013741493225,-0.0001290552318096161
1659103352573702100,11.2477021484375,0.0044116973876953125,-0.008025169372558594,-0.010747700929641724
1659103352583373000,11.257373046875,-0.00036907196044921875,-0.0019321590662002563,-0.002363812178373337
1659103352593044200,11.267044189453125,0.0031671524047851562,0.019239336252212524,0.0058226920664310455
1659103352602715400,11.27671533203125,0.006640434265136719,-0.004448547959327698,0.0009600669145584106
1659103352612386300,11.28638623046875,-0.004059791564941406,-0.0020300447940826416,-0.006116803735494614
1659103352622057500,11.296057373046875,-0.00164031982421875,0.01690395176410675,0.002188563346862793
1659103352631728600,11.305728759765625,-0.006317138671875,0.012998759746551514,-0.00499425083398819
1659103352641399800,11.31539990234375,0.00084686279296875,0.0009518265724182129,-0.010852385312318802
1659103352651070700,11.32507080078125,-0.0026979446411132812,0.002160683274269104,0.0033864490687847137
1659103352660742000,11.334741943359376,0.004405021667480469,0.0021729320287704468,-0.0014070793986320496
1659103352670412800,11.344412841796874,0.006686210632324219,0.003247499465942383,0.003234073519706726
1659103352680084000,11.354083984375,-0.0028390884399414062,0.00441838800907135,0.0007973760366439819
