time,seconds_elapsed,z,y,x
1659103341374665000,0.0486650390625,9.803627967834473,0.23960961401462555,-0.04312973469495773
1659103341384336000,0.0583359375,9.803645133972168,0.23784637451171875,-0.04848446324467659
1659103341394006800,0.0680068359375,9.80360221862793,0.2392585575580597,-0.050226546823978424
1659103341403677700,0.077677734375,9.803544998168945,0.24142548441886902,-0.05107617750763893
1659103341413348900,0.087348876953125,9.803488731384277,0.24418120086193085,-0.048475898802280426
1659103341423019800,0.097019775390625,9.803524017333984,0.24241966009140015,-0.050308387726545334
1659103341432690700,0.106690673828125,9.803545951843262,0.24130871891975403,-0.051384855061769485
1659103341442361600,0.116361572265625,9.803566932678223,0.2406766414642334,-0.050424326211214066
1659103341452032500,0.126032470703125,9.803585052490234,0.24024716019630432,-0.048922207206487656
1659103341461703400,0.135703369140625,9.803627967834473,0.2382463961839676,-0.0499919056892395
1659103341471374300,0.145374267578125,9.803665161132812,0.23689474165439606,-0.04903711751103401
1659103341481045500,0.15504541015625,9.803680419921875,0.23620207607746124,-0.04933423921465874
1659103341490716400,0.16471630859375,9.803709983825684,0.2349156141281128,-0.04972391948103905
1659103341500387300,0.17438720703125,9.803726196289062,0.2341461032629013,-0.05016292259097099
1659103341510058200,0.184058349609375,9.803749084472656,0.23343433439731598,-0.0490778386592865
1659103341519729200,0.193729248046875,9.80377197265625,0.23251935839653015,-0.04875364527106285
1659103341529400000,0.203400146484375,9.803744316101074,0.2335950881242752,-0.049141254276037216
1659103341539071000,0.213071044921875,9.80373477935791,0.23402252793312073,-0.04901622608304024
1659103341548742000,0.222741943359375,9.803720474243164,0.23463629186153412,-0.04903702810406685
1659103341558412800,0.232412841796875,9.803718566894531,0.2346230000257492,-0.04958227276802063
1659103341568084000,0.242083984375,9.803720474243164,0.23455096781253815,-0.0495029054582119
1659103341577755000,0.2517548828125,9.803719520568848,0.23453453183174133,-0.04961637780070305
1659103341587425800,0.26142578125,9.80372428894043,0.23439742624759674,-0.0494566485285759
1659103341597096700,0.2710966796875,9.803727149963379,0.23420503735542297,-0.04965837299823761
1659103341606767600,0.280767578125,9.803744316101074,0.2334747463464737,-0.04969870299100876
1659103341616438500,0.2904384765625,9.803757667541504,0.23291023075580597,-0.04989113286137581
1659103341626109700,0.300109619140625,9.803760528564453,0.23269033432006836,-0.050157330930233
1659103341635780600,0.309780517578125,9.803755760192871,0.2328544408082962,-0.050387192517519
1659103341645451500,0.319451416015625,9.803760528564453,0.23274201154708862,-0.05010516196489334
1659103341655122400,0.329122314453125,9.803749084472656,0.233175128698349,-0.05013261362910271
1659103341664793300,0.33879345703125,9.803747177124023,0.23329119384288788,-0.050204694271087646
1659103341674464300,0.34846435546875,9.803757667541504,0.23294273018836975,-0.049671731889247894
1659103341684135400,0.358135498046875,9.803754806518555,0.23312018811702728,-0.04920337721705437
1659103341693806300,0.367806396484375,9.803754806518555,0.23311112821102142,-0.049211714416742325
1659103341703477200,0.377477294921875,9.803747177124023,0.23344850540161133,-0.049142707139253616
1659103341713148200,0.387148193359375,9.80374526977539,0.2336069494485855,-0.04902678728103638
1659103341722819000,0.396819091796875,9.803744316101074,0.23368102312088013,-0.04894130304455757
1659103341732490000,0.406489990234375,9.803744316101074,0.23359040915966034,-0.04907280206680298
1659103341742161000,0.416160888671875,9.803746223449707,0.23350292444229126,-0.049263328313827515
1659103341751832000,0.42583203125,9.803750991821289,0.23324091732501984,-0.04952884837985039
1659103341761503000,0.4355029296875,9.803755760192871,0.2331146001815796,-0.04940136522054672
1659103341771174000,0.445173828125,9.803753852844238,0.23321878910064697,-0.04910686984658241
1659103341780844800,0.4548447265625,9.803759574890137,0.23297947645187378,-0.049100928008556366
1659103341790515700,0.464515625,9.803770065307617,0.23254238069057465,-0.04915211349725723
1659103341800186600,0.4741865234375,9.8037691116333,0.23255623877048492,-0.04903702810406685
1659103341809857500,0.483857421875,9.803765296936035,0.232771635055542,-0.04898069053888321
1659103341819528400,0.493528564453125,9.803759574890137,0.23304526507854462,-0.04866906628012657
1659103341829199400,0.503199462890625,9.803760528564453,0.23307694494724274,-0.04843950644135475
1659103341838870500,0.51287060546875,9.803756713867188,0.23323361575603485,-0.04839425906538963
1659103341848541400,0.52254150390625,9.803750038146973,0.23356299102306366,-0.0480952113866806
1659103341858212400,0.53221240234375,9.803749084472656,0.23361754417419434,-0.04805046319961548
1659103341867883300,0.54188330078125,9.803746223449707,0.23379023373126984,-0.047855984419584274
1659103341877554200,0.55155419921875,9.803740501403809,0.234022855758667,-0.04783239960670471
1659103341887225300,0.561225341796875,9.803741455078125,0.23393778502941132,-0.047872722148895264
1659103341896896300,0.570896240234375,9.80374813079834,0.23369726538658142,-0.04790070652961731
1659103341906567200,0.580567138671875,9.803753852844238,0.23343156278133392,-0.04799005016684532
1659103341916238000,0.590238037109375,9.80375862121582,0.23323173820972443,-0.048005782067775726
1659103341925909000,0.599908935546875,9.803759574890137,0.2331964373588562,-0.04810526594519615
1659103341935580000,0.609579833984375,9.803756713867188,0.23330992460250854,-0.048155345022678375
1659103341945251000,0.6192509765625,9.80375862121582,0.23319493234157562,-0.04811874404549599
1659103341954922000,0.628921875,9.803756713867188,0.23328517377376556,-0.04801608622074127
1659103341964593000,0.638593017578125,9.803753852844238,0.23342977464199066,-0.04801679402589798
1659103341974263800,0.648263916015625,9.803749084472656,0.2336222231388092,-0.048054952174425125
1659103341983934700,0.657934814453125,9.803746223449707,0.23378747701644897,-0.04799376055598259
1659103341993605600,0.667605712890625,9.803743362426758,0.23388426005840302,-0.04780443757772446
1659103342003276500,0.677276611328125,9.80374526977539,0.23387081921100616,-0.047718290239572525
1659103342012947500,0.686947509765625,9.803743362426758,0.23393702507019043,-0.04761965572834015
1659103342022618600,0.69661865234375,9.803744316101074,0.2339695543050766,-0.04751906916499138
1659103342032289500,0.70628955078125,9.80374813079834,0.23374521732330322,-0.04771099239587784
1659103342041960400,0.71596044921875,9.803750991821289,0.23353686928749084,-0.04795370250940323
1659103342051631400,0.72563134765625,9.803752899169922,0.2335241734981537,-0.04787085950374603
1659103342061302300,0.73530224609375,9.803755760192871,0.2333795428276062,-0.047908980399370193
1659103342070973200,0.74497314453125,9.803752899169922,0.23350954055786133,-0.04795583337545395
1659103342080644000,0.75464404296875,9.803755760192871,0.2333795428276062,-0.0479838065803051
1659103342090315000,0.76431494140625,9.803754806518555,0.23345310986042023,-0.04773515462875366
1659103342099986200,0.773986083984375,9.803755760192871,0.233400359749794,-0.04775828495621681
1659103342109657000,0.783656982421875,9.803760528564453,0.2332228124141693,-0.047792285680770874
1659103342119328000,0.793327880859375,9.803759574890137,0.23326444625854492,-0.04776151478290558
1659103342128999000,0.8029990234375,9.803756713867188,0.23339833319187164,-0.047513339668512344
1659103342138669800,0.812669921875,9.803756713867188,0.23341259360313416,-0.0476393848657608
1659103342148340700,0.8223408203125,9.80375862121582,0.2333287000656128,-0.04769541323184967
1659103342158012000,0.832011962890625,9.803760528564453,0.2331823706626892,-0.04789474606513977
1659103342167682800,0.841682861328125,9.80375862121582,0.23325733840465546,-0.04798651859164238
1659103342177353700,0.851353759765625,9.803760528564453,0.23308297991752625,-0.04827352985739708
1659103342187024600,0.861024658203125,9.803759574890137,0.23311500251293182,-0.04845479503273964
1659103342196695600,0.870695556640625,9.803760528564453,0.23303240537643433,-0.04858527332544327
1659103342206366500,0.880366455078125,9.803766250610352,0.23281048238277435,-0.048574961721897125
1659103342216037600,0.89003759765625,9.803768157958984,0.23270592093467712,-0.04866380989551544
1659103342225708500,0.89970849609375,9.8037691116333,0.23269596695899963,-0.04850151017308235
1659103342235379500,0.90937939453125,9.8037691116333,0.2326768934726715,-0.04854275658726692
1659103342245050400,0.91905029296875,9.803771018981934,0.23259294033050537,-0.0485989972949028
1659103342254721300,0.92872119140625,9.803771018981934,0.2326236069202423,-0.04847244918346405
1659103342264392200,0.93839208984375,9.80377197265625,0.23256386816501617,-0.04850586876273155
1659103342274063400,0.9480634765625,9.803770065307617,0.23260676860809326,-0.04865594208240509
1659103342283734300,0.957734375,9.803773880004883,0.23246529698371887,-0.048583678901195526
1659103342293405200,0.9674052734375,9.803773880004883,0.2324828803539276,-0.04851492866873741
1659103342303076000,0.977076171875,9.803772926330566,0.23246857523918152,-0.0487799309194088
1659103342312747000,0.9867470703125,9.803768157958984,0.2326371967792511,-0.04890601709485054
1659103342322418000,0.99641796875,9.803763389587402,0.23286785185337067,-0.04881184175610542
1659103342332088800,1.0060888671875,9.803765296936035,0.23278652131557465,-0.04886504262685776
1659103342341759700,1.015759765625,9.803771018981934,0.23260922729969025,-0.04866073653101921
1659103342351431000,1.025430908203125,9.803771018981934,0.23256708681583405,-0.0487203374505043
1659103342361101800,1.035101806640625,9.803778648376465,0.23232318460941315,-0.04839599132537842
1659103342370772700,1.044772705078125,9.803780555725098,0.23235593736171722,-0.04803072288632393
1659103342380443600,1.054443603515625,9.803784370422363,0.23210760951042175,-0.04819627106189728
1659103342390114600,1.064114501953125,9.803787231445312,0.23200735449790955,-0.048190489411354065
1659103342399785500,1.073785400390625,9.803787231445312,0.23202598094940186,-0.04802532494068146
1659103342409456400,1.083456298828125,9.803786277770996,0.2320384383201599,-0.048083700239658356
1659103342419127300,1.093127197265625,9.803786277770996,0.2320791631937027,-0.04805836081504822
1659103342428798500,1.102798583984375,9.803784370422363,0.23207558691501617,-0.04831146076321602
1659103342438469400,1.112469482421875,9.803787231445312,0.23202228546142578,-0.04818379133939743
1659103342448140300,1.122140380859375,9.803788185119629,0.23197942972183228,-0.0480988509953022
1659103342457811200,1.131811279296875,9.803792953491211,0.23179705440998077,-0.04808490723371506
1659103342467482000,1.141482177734375,9.803793907165527,0.23176617920398712,-0.04804295673966408
1659103342477153000,1.151153076171875,9.803791999816895,0.23180316388607025,-0.04809064790606499
1659103342486824200,1.16082421875,9.803796768188477,0.23162874579429626,-0.0479578860104084
1659103342496495000,1.1704951171875,9.803796768188477,0.23164533078670502,-0.04786934703588486
1659103342506166000,1.180166015625,9.803799629211426,0.23149576783180237,-0.047909002751111984
1659103342515837000,1.1898369140625,9.803804397583008,0.23136194050312042,-0.04785947874188423
1659103342525507800,1.1995078125,9.803803443908691,0.2313452959060669,-0.047822386026382446
1659103342535178800,1.2091787109375,9.803807258605957,0.23124480247497559,-0.047726795077323914
1659103342544850000,1.218849853515625,9.803807258605957,0.23132173717021942,-0.04748377203941345
1659103342554520800,1.228520751953125,9.80380630493164,0.23134201765060425,-0.04754253476858139
1659103342564191700,1.238191650390625,9.80380630493164,0.23137938976287842,-0.04741993919014931
1659103342573862700,1.247862548828125,9.803811073303223,0.23120923340320587,-0.04725049063563347
1659103342583533600,1.257533447265625,9.803803443908691,0.23148584365844727,-0.04719357565045357
1659103342593204500,1.26720458984375,9.803804397583008,0.23148702085018158,-0.04721318557858467
1659103342602875600,1.276875732421875,9.80379867553711,0.23171283304691315,-0.04730648919939995
1659103342612546600,1.286546630859375,9.803797721862793,0.23168480396270752,-0.047396302223205566
1659103342622217500,1.296217529296875,9.803801536560059,0.23153194785118103,-0.04747318476438522
1659103342631888400,1.305888427734375,9.803803443908691,0.23145237565040588,-0.047517865896224976
1659103342641559300,1.315559326171875,9.803810119628906,0.23116983473300934,-0.04769385978579521
1659103342651230200,1.325230224609375,9.803812026977539,0.23097743093967438,-0.04787774384021759
1659103342660901400,1.3349013671875,9.803815841674805,0.23084186017513275,-0.04799977317452431
1659103342670572300,1.344572265625,9.80381965637207,0.23070965707302094,-0.04783023148775101
1659103342680243200,1.3542431640625,9.803818702697754,0.2307407557964325,-0.04785415530204773
1659103342689914000,1.3639140625,9.803813934326172,0.23090693354606628,-0.047877196222543716
1659103342699585000,1.3735849609375,9.803814888000488,0.23090915381908417,-0.0477776825428009
1659103342709256000,1.383255859375,9.803813934326172,0.2309660166501999,-0.04775857552886009
1659103342718927000,1.392927001953125,9.803814888000488,0.2309650331735611,-0.047543078660964966
1659103342728598000,1.402597900390625,9.80382251739502,0.23059675097465515,-0.04767186567187309
1659103342738269000,1.41226904296875,9.803825378417969,0.23047690093517303,-0.04773271083831787
1659103342747939800,1.42193994140625,9.803825378417969,0.23046907782554626,-0.04779591038823128
1659103342757610800,1.43161083984375,9.803824424743652,0.2305348962545395,-0.04773903638124466
1659103342767281700,1.44128173828125,9.803818702697754,0.2307673990726471,-0.0476330891251564
1659103342776952600,1.45095263671875,9.803818702697754,0.23073585331439972,-0.04776585474610329
1659103342786623700,1.460623779296875,9.803823471069336,0.23050718009471893,-0.04792771860957146
1659103342796294700,1.470294677734375,9.803826332092285,0.23039160668849945,-0.048015695065259933
1659103342805965600,1.479965576171875,9.803821563720703,0.23055824637413025,-0.04796723648905754
1659103342815636500,1.489636474609375,9.80381965637207,0.2307390570640564,-0.04774077981710434
1659103342825307400,1.499307373046875,9.803816795349121,0.2309032529592514,-0.04746377095580101
1659103342834978300,1.508978271484375,9.803814888000488,0.2310003787279129,-0.047294531017541885
1659103342844649500,1.5186494140625,9.803815841674805,0.2309425324201584,-0.04726497828960419
1659103342854320400,1.5283203125,9.803813934326172,0.23106178641319275,-0.04729335010051727
1659103342863991300,1.5379912109375,9.803813934326172,0.23105141520500183,-0.047195348888635635
1659103342873662200,1.547662109375,9.803814888000488,0.23108136653900146,-0.04704907536506653
1659103342883333000,1.5573330078125,9.803815841674805,0.23099173605442047,-0.04704376682639122
1659103342893004000,1.567004150390625,9.803812980651855,0.23112501204013824,-0.047137994319200516
1659103342902675000,1.576675048828125,9.803810119628906,0.23121853172779083,-0.047210048884153366
1659103342912346000,1.58634619140625,9.803812026977539,0.23113030195236206,-0.04718261584639549
1659103342922017000,1.59601708984375,9.803813934326172,0.2310381382703781,-0.047245316207408905
1659103342931688000,1.60568798828125,9.803811073303223,0.2311001718044281,-0.04757648706436157
1659103342941358800,1.61535888671875,9.803812980651855,0.23103995621204376,-0.04756343737244606
1659103342951029800,1.62502978515625,9.803813934326172,0.2309572994709015,-0.04760031774640083
1659103342960700700,1.63470068359375,9.803816795349121,0.23085804283618927,-0.047616440802812576
1659103342970371800,1.644371826171875,9.803816795349121,0.2308819741010666,-0.04747303947806358
1659103342980042800,1.654042724609375,9.803818702697754,0.23082628846168518,-0.04739141836762428
1659103342989713700,1.663713623046875,9.803820610046387,0.23078002035617828,-0.04742233827710152
1659103342999384600,1.673384521484375,9.803820610046387,0.23073481023311615,-0.047328077256679535
1659103343009055500,1.683055419921875,9.803813934326172,0.2310464233160019,-0.047344353049993515
1659103343018726400,1.692726318359375,9.803813934326172,0.23110206425189972,-0.047240760177373886
1659103343028397600,1.7023974609375,9.803810119628906,0.2312491238117218,-0.0470755361020565
1659103343038068500,1.712068359375,9.803812980651855,0.23118077218532562,-0.04702817276120186
1659103343047739400,1.721739501953125,9.803812980651855,0.23112724721431732,-0.047095440328121185
1659103343057410300,1.731410400390625,9.803812026977539,0.23120924830436707,-0.04696138948202133
1659103343067081200,1.741081298828125,9.803815841674805,0.23106229305267334,-0.04685559496283531
1659103343076752100,1.750752197265625,9.803815841674805,0.23103931546211243,-0.04685167968273163
1659103343086423300,1.76042333984375,9.803814888000488,0.2310343235731125,-0.0469292588531971
1659103343096094200,1.77009423828125,9.803816795349121,0.23100903630256653,-0.04681796208024025
1659103343105765000,1.77976513671875,9.803824424743652,0.23070019483566284,-0.046834833920001984
1659103343115436000,1.78943603515625,9.803823471069336,0.23073823750019073,-0.04693235084414482
1659103343125107000,1.79910693359375,9.80382251739502,0.23072600364685059,-0.04698949307203293
1659103343134777900,1.80877783203125,9.803824424743652,0.23060938715934753,-0.04708319902420044
1659103343144449000,1.818448974609375,9.803827285766602,0.23052436113357544,-0.047174278646707535
1659103343154120000,1.828119873046875,9.803824424743652,0.23060953617095947,-0.04716552048921585
1659103343163790800,1.837790771484375,9.803826332092285,0.2305789440870285,-0.047149840742349625
1659103343173461800,1.847461669921875,9.803825378417969,0.23057614266872406,-0.047321997582912445
1659103343183132700,1.857132568359375,9.803823471069336,0.23064100742340088,-0.0472196564078331
1659103343192803800,1.866803955078125,9.803821563720703,0.23069795966148376,-0.04721981659531593
1659103343202474800,1.876474853515625,9.803820610046387,0.23082061111927032,-0.04689410328865051
1659103343212145700,1.886145751953125,9.803818702697754,0.23092365264892578,-0.046890005469322205
1659103343221816600,1.895816650390625,9.803815841674805,0.23099654912948608,-0.04700778052210808
1659103343231487500,1.905487548828125,9.803815841674805,0.2310781329870224,-0.046901777386665344
1659103343241158400,1.915158447265625,9.803808212280273,0.23139990866184235,-0.046680714935064316
1659103343250829600,1.92482958984375,9.803813934326172,0.231155663728714,-0.04690856114029884
1659103343260500500,1.93450048828125,9.803812026977539,0.23121388256549835,-0.046937134116888046
1659103343270171400,1.94417138671875,9.80380916595459,0.23137010633945465,-0.046823933720588684
1659103343279842300,1.95384228515625,9.80380916595459,0.23133409023284912,-0.046918924897909164
1659103343289513200,1.96351318359375,9.80380916595459,0.23131780326366425,-0.04701436311006546
1659103343299184000,1.97318408203125,9.80380916595459,0.2313748151063919,-0.04684140160679817
1659103343308855300,1.982855224609375,9.80380916595459,0.2313157171010971,-0.04696661978960037
1659103343318526200,1.992526123046875,9.80380630493164,0.2314547747373581,-0.047030843794345856
1659103343328197000,2.002197021484375,9.803810119628906,0.23123084008693695,-0.047213319689035416
1659103343337868000,2.011867919921875,9.803812026977539,0.23117797076702118,-0.047035615891218185
1659103343347539000,2.0215390625,9.803812980651855,0.23112422227859497,-0.0470370389521122
1659103343357210000,2.031210205078125,9.803808212280273,0.2313385158777237,-0.047158677130937576
1659103343366881000,2.040881103515625,9.803805351257324,0.23146647214889526,-0.047081805765628815
1659103343376552000,2.050552001953125,9.803805351257324,0.2314346730709076,-0.04713713377714157
1659103343386222800,2.060222900390625,9.803805351257324,0.23144178092479706,-0.04715824872255325
1659103343395893800,2.069893798828125,9.80380630493164,0.2314090132713318,-0.047169819474220276
1659103343405565000,2.07956494140625,9.803807258605957,0.23140323162078857,-0.04706524685025215
1659103343415235800,2.08923583984375,9.80380630493164,0.23145318031311035,-0.04699051380157471
1659103343424906800,2.09890673828125,9.80380630493164,0.2314203381538391,-0.047101039439439774
1659103343434577700,2.10857763671875,9.803801536560059,0.23157869279384613,-0.04713406041264534
1659103343444248600,2.11824853515625,9.80379867553711,0.23177549242973328,-0.04694194719195366
1659103343453919500,2.12791943359375,9.803800582885742,0.2316797375679016,-0.046854399144649506
1659103343463590700,2.137590576171875,9.803794860839844,0.23197206854820251,-0.04684213548898697
1659103343473261600,2.147261474609375,9.803790092468262,0.23213085532188416,-0.04692971333861351
1659103343482932500,2.156932373046875,9.803788185119629,0.23222458362579346,-0.04678589850664139
1659103343492603400,2.166603271484375,9.803789138793945,0.2321752905845642,-0.04676491394639015
1659103343502274300,2.1762744140625,9.803788185119629,0.23218850791454315,-0.04709966108202934
1659103343511945200,2.1859453125,9.803790092468262,0.23207050561904907,-0.04709379002451897
1659103343521616400,2.195616455078125,9.803789138793945,0.23224465548992157,-0.046807434409856796
1659103343531287300,2.205287353515625,9.803789138793945,0.2322431057691574,-0.04667706415057182
1659103343540958200,2.214958251953125,9.803791046142578,0.23217947781085968,-0.04638885334134102
1659103343550629000,2.224629150390625,9.803791999816895,0.23212787508964539,-0.04662380740046501
1659103343560300000,2.234300048828125,9.803789138793945,0.2321515530347824,-0.04686010628938675
1659103343569971000,2.243970947265625,9.803791999816895,0.232002392411232,-0.04707694426178932
1659103343579642000,2.25364208984375,9.803789138793945,0.23214779794216156,-0.04714258387684822
1659103343589313000,2.26331298828125,9.803787231445312,0.23217980563640594,-0.0471336804330349
1659103343598984000,2.27298388671875,9.803791046142578,0.23198917508125305,-0.04723377525806427
1659103343608654800,2.28265478515625,9.803790092468262,0.23208963871002197,-0.04730447009205818
1659103343618325800,2.29232568359375,9.803794860839844,0.23192352056503296,-0.047084055840969086
1659103343627997000,2.301996826171875,9.803793907165527,0.23202340304851532,-0.04684503749012947
1659103343637667800,2.311667724609375,9.803794860839844,0.23194879293441772,-0.04686093330383301
1659103343647338800,2.3213388671875,9.803797721862793,0.23186807334423065,-0.04671302065253258
1659103343657009700,2.331009765625,9.803801536560059,0.23168489336967468,-0.046633247286081314
1659103343666680600,2.3406806640625,9.803807258605957,0.23151281476020813,-0.04660255089402199
1659103343676351700,2.350351806640625,9.803808212280273,0.23142506182193756,-0.04659333825111389
1659103343686022700,2.360022705078125,9.803812026977539,0.23127703368663788,-0.046592000871896744
1659103343695693600,2.369693603515625,9.803812980651855,0.2312334030866623,-0.04663018882274628
1659103343705364500,2.379364501953125,9.803818702697754,0.23097211122512817,-0.04670894518494606
1659103343715035600,2.38903564453125,9.803820610046387,0.23084118962287903,-0.04700647294521332
1659103343724706600,2.39870654296875,9.803815841674805,0.2309415340423584,-0.0472002848982811
1659103343734377500,2.40837744140625,9.803813934326172,0.23099002242088318,-0.04736883565783501
1659103343744048400,2.41804833984375,9.803812980651855,0.2311042696237564,-0.04732450097799301
1659103343753719300,2.42771923828125,9.803812980651855,0.23111332952976227,-0.047235552221536636
1659103343763390200,2.43739013671875,9.803811073303223,0.23112647235393524,-0.047436099499464035
1659103343773061400,2.447061279296875,9.803812026977539,0.23107750713825226,-0.04748893901705742
1659103343782732300,2.456732177734375,9.803817749023438,0.23083285987377167,-0.0476241335272789
1659103343792403200,2.4664033203125,9.803821563720703,0.23064227402210236,-0.047576628625392914
1659103343802074000,2.47607421875,9.80382251739502,0.23057638108730316,-0.04782078415155411
1659103343811745000,2.4857451171875,9.80383014678955,0.23027148842811584,-0.04775237664580345
1659103343821416000,2.495416015625,9.80383014678955,0.23025435209274292,-0.04767700284719467
1659103343831087000,2.505087158203125,9.803839683532715,0.22987495362758636,-0.047824759036302567
1659103343840758000,2.514758056640625,9.803840637207031,0.2298111617565155,-0.04774952679872513
1659103343850429000,2.524428955078125,9.803841590881348,0.22972184419631958,-0.04795165732502937
1659103343860099800,2.534099853515625,9.803838729858398,0.2298395335674286,-0.04802529513835907
1659103343869770800,2.543770751953125,9.803841590881348,0.2297680675983429,-0.04778251796960831
1659103343879442000,2.55344189453125,9.803842544555664,0.22972433269023895,-0.04787154123187065
1659103343889112800,2.56311279296875,9.803839683532715,0.22981050610542297,-0.04807238280773163
1659103343898783700,2.57278369140625,9.803836822509766,0.2298949509859085,-0.04810046777129173
1659103343908454700,2.58245458984375,9.803833961486816,0.2300432324409485,-0.04804519563913345
1659103343918125800,2.592125732421875,9.803833961486816,0.23002873361110687,-0.04806072264909744
1659103343927796700,2.601796630859375,9.80383586883545,0.22995756566524506,-0.0480361171066761
1659103343937467600,2.611467529296875,9.8038330078125,0.23004423081874847,-0.048179686069488525
1659103343947138600,2.621138671875,9.803836822509766,0.2299269735813141,-0.04802984744310379
1659103343956809500,2.6308095703125,9.803836822509766,0.22993922233581543,-0.047916579991579056
1659103343966480600,2.640480712890625,9.803838729858398,0.22986489534378052,-0.04781759902834892
1659103343976151600,2.650151611328125,9.803839683532715,0.22987790405750275,-0.047701265662908554
1659103343985822500,2.659822509765625,9.803841590881348,0.2297932654619217,-0.04760183393955231
1659103343995493400,2.669493408203125,9.803844451904297,0.22968852519989014,-0.04752782732248306
1659103344005164300,2.679164306640625,9.803842544555664,0.22972655296325684,-0.047881126403808594
1659103344014835200,2.688835205078125,9.803839683532715,0.22982484102249146,-0.047815676778554916
1659103344024506400,2.69850634765625,9.803839683532715,0.2298319786787033,-0.04781872034072876
1659103344034177300,2.70817724609375,9.8038330078125,0.23011498153209686,-0.04789070785045624
1659103344043848200,2.71784814453125,9.803834915161133,0.23007619380950928,-0.047895919531583786
1659103344053519000,2.72751904296875,9.803831100463867,0.23020301759243011,-0.04769735410809517
1659103344063190300,2.737190185546875,9.803828239440918,0.23040220141410828,-0.04762808233499527
1659103344072861200,2.746861083984375,9.80383014678955,0.23030970990657806,-0.04777049645781517
1659103344082532000,2.756531982421875,9.803829193115234,0.23027445375919342,-0.047782909125089645
1659103344092203000,2.766203125,9.803826332092285,0.23044826090335846,-0.047774601727724075
1659103344101874200,2.775874267578125,9.80383014678955,0.23031523823738098,-0.04765423387289047
1659103344111545000,2.785545166015625,9.803827285766602,0.23040786385536194,-0.047587402164936066
1659103344121216000,2.795216064453125,9.8038330078125,0.2302134931087494,-0.047611821442842484
1659103344130887000,2.804886962890625,9.803825378417969,0.23046453297138214,-0.04790252074599266
1659103344140557800,2.814557861328125,9.803825378417969,0.230463445186615,-0.04789412021636963
1659103344150228700,2.824228759765625,9.803820610046387,0.23065102100372314,-0.047832757234573364
1659103344159900000,2.83389990234375,9.803818702697754,0.23070068657398224,-0.04785105213522911
1659103344169570800,2.84357080078125,9.80381965637207,0.23069562017917633,-0.04794110357761383
1659103344179241700,2.85324169921875,9.803816795349121,0.23076948523521423,-0.04789038747549057
1659103344188912600,2.86291259765625,9.803812026977539,0.23102186620235443,-0.04792821779847145
1659103344198583800,2.872583740234375,9.803808212280273,0.23119834065437317,-0.04778033122420311
1659103344208254700,2.882254638671875,9.803812026977539,0.23107466101646423,-0.04770808294415474
1659103344217925600,2.891925537109375,9.803815841674805,0.23090620338916779,-0.04761883243918419
1659103344227596800,2.9015966796875,9.803815841674805,0.23094111680984497,-0.04751778021454811
1659103344237267700,2.911267822265625,9.803817749023438,0.230801060795784,-0.0476025752723217
1659103344246938600,2.920938720703125,9.803823471069336,0.2305816411972046,-0.047578033059835434
1659103344256609500,2.930609619140625,9.803823471069336,0.23062938451766968,-0.04751363769173622
1659103344266280400,2.940280517578125,9.803821563720703,0.23062552511692047,-0.0475010871887207
1659103344275951400,2.949951416015625,9.803824424743652,0.230507493019104,-0.04773573577404022
1659103344285622500,2.95962255859375,9.803821563720703,0.23063848912715912,-0.04767940193414688
1659103344295293400,2.96929345703125,9.80383014678955,0.23036180436611176,-0.04734678193926811
1659103344304964400,2.97896435546875,9.803831100463867,0.23028048872947693,-0.04740403592586517
1659103344314635300,2.98863525390625,9.803829193115234,0.23041881620883942,-0.04732058197259903
1659103344324306400,2.998306396484375,9.803828239440918,0.23041945695877075,-0.047363631427288055
1659103344333977300,3.007977294921875,9.803826332092285,0.23051516711711884,-0.04738914966583252
1659103344343648300,3.017648193359375,9.803829193115234,0.2303648144006729,-0.04734071344137192
1659103344353319200,3.027319091796875,9.803831100463867,0.2303505390882492,-0.04714081436395645
1659103344362990300,3.036990234375,9.803829193115234,0.23041923344135284,-0.047211259603500366
1659103344372661200,3.0466611328125,9.803829193115234,0.23034213483333588,-0.04749862477183342
1659103344382332200,3.056332275390625,9.803825378417969,0.23050457239151,-0.04756441339850426
1659103344392003000,3.066003173828125,9.803829193115234,0.2303287535905838,-0.047666922211647034
1659103344401674000,3.075674072265625,9.803832054138184,0.23019203543663025,-0.04772999510169029
1659103344411345200,3.08534521484375,9.80383014678955,0.23035958409309387,-0.047332655638456345
1659103344421016000,3.09501611328125,9.803827285766602,0.23048295080661774,-0.04728114977478981
1659103344430687000,3.10468701171875,9.803827285766602,0.23052500188350677,-0.047202128916978836
1659103344440358100,3.114358154296875,9.80382251739502,0.23069150745868683,-0.047215625643730164
1659103344450029000,3.124029052734375,9.803823471069336,0.23063251376152039,-0.047236498445272446
1659103344459700000,3.133699951171875,9.80381965637207,0.23086698353290558,-0.047047559171915054
1659103344469371000,3.143370849609375,9.803818702697754,0.230947807431221,-0.046948421746492386
1659103344479041800,3.153041748046875,9.803814888000488,0.23110491037368774,-0.046954747289419174
1659103344488712700,3.162712646484375,9.80380916595459,0.23129688203334808,-0.04708635061979294
1659103344498384000,3.1723837890625,9.803812980651855,0.23116610944271088,-0.04713123291730881
1659103344508054800,3.1820546875,9.803814888000488,0.23111571371555328,-0.0468437559902668
1659103344517725700,3.1917255859375,9.803818702697754,0.23084640502929688,-0.047106120735406876
1659103344527396900,3.20139697265625,9.80381965637207,0.23078683018684387,-0.04723624140024185
1659103344537067800,3.21106787109375,9.803821563720703,0.23075741529464722,-0.04710199683904648
1659103344546738700,3.22073876953125,9.803820610046387,0.23081175982952118,-0.04711946099996567
1659103344556409600,3.23040966796875,9.803816795349121,0.23091919720172882,-0.047232385724782944
1659103344566080500,3.24008056640625,9.80381965637207,0.23074482381343842,-0.04745740443468094
1659103344575751700,3.249751708984375,9.803820610046387,0.23072731494903564,-0.04732184484601021
1659103344585422600,3.259422607421875,9.803818702697754,0.23081450164318085,-0.04732213914394379
1659103344595093500,3.269093505859375,9.803821563720703,0.23072956502437592,-0.04734238237142563
1659103344604764400,3.278764404296875,9.803821563720703,0.23068910837173462,-0.0473310612142086
1659103344614435600,3.288435546875,9.803823471069336,0.2305859625339508,-0.04759807512164116
1659103344624106500,3.2981064453125,9.803828239440918,0.23043720424175262,-0.04740459471940994
1659103344633777400,3.30777734375,9.803828239440918,0.23041187226772308,-0.04732002317905426
1659103344643448300,3.3174482421875,9.803829193115234,0.23040613532066345,-0.047349121421575546
1659103344653119500,3.327119384765625,9.803831100463867,0.23031039535999298,-0.0472976379096508
1659103344662790400,3.336790283203125,9.803831100463867,0.23029838502407074,-0.04737493395805359
1659103344672461300,3.34646142578125,9.8038330078125,0.2302490919828415,-0.04729141667485237
1659103344682132200,3.35613232421875,9.80383014678955,0.23035500943660736,-0.047349147498607635
1659103344691803400,3.365803466796875,9.803828239440918,0.2304297238588333,-0.04735790193080902
1659103344701474300,3.375474365234375,9.803825378417969,0.2305232733488083,-0.04750249907374382
1659103344711145200,3.385145263671875,9.803823471069336,0.2305925339460373,-0.04746876657009125
1659103344720816400,3.39481640625,9.80382251739502,0.2306639403104782,-0.04753474146127701
1659103344730487300,3.4044873046875,9.803826332092285,0.23047754168510437,-0.04744128882884979
1659103344740158200,3.414158203125,9.803829193115234,0.23039662837982178,-0.047338251024484634
1659103344749829000,3.4238291015625,9.803827285766602,0.23044025897979736,-0.047427814453840256
1659103344759500000,3.4335,9.803827285766602,0.23038358986377716,-0.04777270182967186
1659103344769171200,3.443171142578125,9.803825378417969,0.23046879470348358,-0.047700945287942886
1659103344778842000,3.452842041015625,9.803821563720703,0.23062922060489655,-0.04773136228322983
1659103344788513000,3.462512939453125,9.803825378417969,0.23045912384986877,-0.04782165586948395
1659103344798184200,3.47218408203125,9.80382251739502,0.2305881679058075,-0.04777228459715843
1659103344807855000,3.481855224609375,9.80382251739502,0.23057466745376587,-0.047882381826639175
1659103344817526000,3.491526123046875,9.80381965637207,0.2306329607963562,-0.048221293836832047
1659103344827197000,3.501197021484375,9.803815841674805,0.23072704672813416,-0.048430852591991425
1659103344836867800,3.510867919921875,9.803814888000488,0.23075644671916962,-0.04837191849946976
1659103344846539000,3.5205390625,9.803812980651855,0.23081693053245544,-0.048489224165678024
1659103344856210000,3.5302099609375,9.803812026977539,0.2308601289987564,-0.048477936536073685
1659103344865880800,3.539880859375,9.803811073303223,0.2309056520462036,-0.04853663221001625
1659103344875552000,3.549552001953125,9.803808212280273,0.2310577630996704,-0.0483543761074543
1659103344885223000,3.559222900390625,9.803810119628906,0.23097215592861176,-0.04830499365925789
1659103344894893800,3.568893798828125,9.80380916595459,0.23106327652931213,-0.04824401065707207
1659103344904564700,3.578564697265625,9.803810119628906,0.23104558885097504,-0.04797995463013649
1659103344914236000,3.58823583984375,9.803812026977539,0.23101866245269775,-0.04800758510828018
1659103344923906800,3.59790673828125,9.803815841674805,0.2308339774608612,-0.04795893654227257
1659103344933577700,3.60757763671875,9.803817749023438,0.23069821298122406,-0.047978080809116364
1659103344943248600,3.61724853515625,9.803824424743652,0.23047998547554016,-0.0479472316801548
1659103344952919800,3.626919921875,9.803825378417969,0.23052014410495758,-0.047638241201639175
1659103344962590700,3.6365908203125,9.803823471069336,0.23057281970977783,-0.04763363301753998
1659103344972261600,3.64626171875,9.803820610046387,0.2307348996400833,-0.04755699262022972
1659103344981932800,3.655932861328125,9.803815841674805,0.23095713555812836,-0.04744206368923187
1659103344991603700,3.665603759765625,9.80380916595459,0.23118601739406586,-0.04741780459880829
1659103345001274600,3.675274658203125,9.80380630493164,0.23129530251026154,-0.0475136935710907
1659103345010945500,3.684945556640625,9.803801536560059,0.23145855963230133,-0.04769514128565788
1659103345020616400,3.694616455078125,9.803805351257324,0.2313740849494934,-0.04751761630177498
1659103345030287600,3.70428759765625,9.803802490234375,0.2314782589673996,-0.04770950600504875
1659103345039958500,3.71395849609375,9.803801536560059,0.2314702868461609,-0.04777174070477486
1659103345049629700,3.723629638671875,9.803800582885742,0.23154385387897491,-0.04773285239934921
1659103345059300600,3.733300537109375,9.803808212280273,0.2312314361333847,-0.047706589102745056
1659103345068971500,3.742971435546875,9.803810119628906,0.23110976815223694,-0.04779960587620735
1659103345078642400,3.752642333984375,9.803808212280273,0.23114915192127228,-0.047876205295324326
1659103345088313300,3.762313232421875,9.803804397583008,0.23131097853183746,-0.047835659235715866
1659103345097984500,3.771984619140625,9.803800582885742,0.23144014179706573,-0.04798334836959839
1659103345107655400,3.781655517578125,9.80379867553711,0.23153701424598694,-0.04810819402337074
1659103345117326600,3.79132666015625,9.803791999816895,0.2317376583814621,-0.04835260659456253
1659103345126997500,3.80099755859375,9.803792953491211,0.23165860772132874,-0.048495400696992874
1659103345136668400,3.81066845703125,9.803791046142578,0.23175698518753052,-0.048483606427907944
1659103345146339300,3.82033935546875,9.80378532409668,0.23201215267181396,-0.048553623259067535
1659103345156010200,3.83001025390625,9.80378532409668,0.23199957609176636,-0.04862261191010475
1659103345165681400,3.839681396484375,9.803784370422363,0.23207053542137146,-0.04854058846831322
1659103345175352300,3.849352294921875,9.803784370422363,0.23209236562252045,-0.048400260508060455
1659103345185023200,3.859023193359375,9.803783416748047,0.2320788949728012,-0.04861709848046303
1659103345194694400,3.8686943359375,9.803781509399414,0.2321525663137436,-0.048630110919475555
1659103345204365300,3.878365234375,9.803788185119629,0.23188506066799164,-0.04861638695001602
1659103345214036200,3.8880361328125,9.803787231445312,0.2318427413702011,-0.048794589936733246
1659103345223707400,3.897707275390625,9.803791999816895,0.23168231546878815,-0.04883836582303047
1659103345233378300,3.90737841796875,9.803787231445312,0.2318599373102188,-0.04896944761276245
1659103345243049200,3.91704931640625,9.803791046142578,0.23168310523033142,-0.04894794151186943
1659103345252720000,3.92672021484375,9.803791046142578,0.23171478509902954,-0.048788879066705704
1659103345262391300,3.936391357421875,9.803792953491211,0.23163600265979767,-0.04877213016152382
1659103345272062200,3.946062255859375,9.803796768188477,0.2314913123846054,-0.04882221668958664
1659103345281733000,3.955733154296875,9.80379581451416,0.23148587346076965,-0.04883306846022606
1659103345291404300,3.965404296875,9.80379581451416,0.23150044679641724,-0.048839520663022995
1659103345301075200,3.9750751953125,9.803791046142578,0.23167359828948975,-0.0489637553691864
1659103345310746000,3.98474609375,9.803794860839844,0.23155830800533295,-0.04879675805568695
1659103345320417000,3.9944169921875,9.80379867553711,0.23138445615768433,-0.04883968085050583
1659103345330088200,4.004088134765625,9.803805351257324,0.23111607134342194,-0.04873422533273697
1659103345339759000,4.013759033203125,9.80380916595459,0.2310454100370407,-0.04830821976065636
1659103345349430000,4.023429931640625,9.803810119628906,0.2310219705104828,-0.04817267879843712
1659103345359101000,4.033100830078125,9.803807258605957,0.23112910985946655,-0.04819994792342186
1659103345368772000,4.042772216796875,9.803810119628906,0.23102779686450958,-0.04836980998516083
1659103345378443000,4.052443115234375,9.803812980651855,0.2308681756258011,-0.048275452107191086
1659103345388114200,4.0621142578125,9.803811073303223,0.23094521462917328,-0.048331569880247116
1659103345397785000,4.07178515625,9.80380916595459,0.23101067543029785,-0.04851337522268295
1659103345407456000,4.0814560546875,9.803805351257324,0.23109915852546692,-0.04864026978611946
1659103345417127000,4.091126953125,9.803799629211426,0.2313060760498047,-0.04887625575065613
1659103345426798000,4.100798095703125,9.80379581451416,0.23146657645702362,-0.04904920235276222
1659103345436469000,4.110468994140625,9.803793907165527,0.2315211147069931,-0.04904838278889656
1659103345446140000,4.120139892578125,9.803791999816895,0.23162969946861267,-0.048878930509090424
1659103345455811000,4.12981103515625,9.803790092468262,0.23175404965877533,-0.04877258092164993
1659103345465482000,4.13948193359375,9.803793907165527,0.23158574104309082,-0.048665039241313934
1659103345475153000,4.14915283203125,9.803800582885742,0.23137569427490234,-0.048441171646118164
1659103345484824000,4.158823974609375,9.803808212280273,0.2311066836118698,-0.04832157492637634
1659103345494495000,4.168494873046875,9.803812980651855,0.23091186583042145,-0.048124585300683975
1659103345504166000,4.178165771484375,9.803815841674805,0.2308245301246643,-0.047851670533418655
1659103345513836800,4.1878369140625,9.803817749023438,0.23071543872356415,-0.04803844913840294
1659103345523508000,4.197508056640625,9.803825378417969,0.23041477799415588,-0.04799610376358032
1659103345533179000,4.207178955078125,9.803829193115234,0.23025944828987122,-0.047872159630060196
1659103345542849800,4.216849853515625,9.803825378417969,0.2304890751838684,-0.047641634941101074
1659103345552521000,4.22652099609375,9.803823471069336,0.23058347404003143,-0.0476742647588253
1659103345562192000,4.23619189453125,9.803818702697754,0.23074011504650116,-0.04782634600996971
1659103345571863000,4.245863037109375,9.803814888000488,0.230850949883461,-0.04786774143576622
1659103345581534000,4.255533935546875,9.803812980651855,0.23097680509090424,-0.04797731339931488
1659103345591204900,4.265204833984375,9.803807258605957,0.23117689788341522,-0.04816310480237007
1659103345600875800,4.274875732421875,9.803797721862793,0.23153944313526154,-0.0481276661157608
1659103345610547000,4.284546875,9.80379867553711,0.23150980472564697,-0.04809439554810524
1659103345620217900,4.2942177734375,9.803801536560059,0.2314344048500061,-0.047909364104270935
1659103345629888800,4.303888671875,9.80380916595459,0.2311340719461441,-0.0478551983833313
1659103345639559700,4.3135595703125,9.80380916595459,0.2311265617609024,-0.04773486405611038
1659103345649230800,4.32323095703125,9.803812980651855,0.23102809488773346,-0.04784582555294037
1659103345658901800,4.33290185546875,9.803810119628906,0.23108236491680145,-0.04789603129029274
1659103345668573000,4.342572998046875,9.80380916595459,0.23113025724887848,-0.04765572398900986
1659103345678243800,4.352243896484375,9.803810119628906,0.2311401218175888,-0.04755949601531029
1659103345687914800,4.361914794921875,9.803810119628906,0.2311125248670578,-0.0476108156144619
1659103345697586000,4.3715859375,9.80380630493164,0.2312966287136078,-0.04771468788385391
1659103345707256800,4.3812568359375,9.803801536560059,0.2315250039100647,-0.04763081669807434
1659103345716927700,4.390927734375,9.803796768188477,0.23171868920326233,-0.04765388369560242
1659103345726598700,4.4005986328125,9.803796768188477,0.23166057467460632,-0.0478462316095829
1659103345736269800,4.410269775390625,9.80379581451416,0.23165959119796753,-0.04799409210681915
1659103345745940700,4.419940673828125,9.803797721862793,0.23161353170871735,-0.048029229044914246
1659103345755612000,4.42961181640625,9.803794860839844,0.23162299394607544,-0.04840388894081116
1659103345765282800,4.43928271484375,9.803796768188477,0.23158444464206696,-0.0483735017478466
1659103345774953700,4.44895361328125,9.803799629211426,0.23142072558403015,-0.04828504100441933
1659103345784625000,4.458625,9.80380630493164,0.2310987412929535,-0.04839464649558067
1659103345794295800,4.4682958984375,9.803808212280273,0.23111125826835632,-0.04821684956550598
1659103345803966700,4.477966796875,9.80380630493164,0.23115938901901245,-0.048122819513082504
1659103345813637600,4.4876376953125,9.803808212280273,0.2310916930437088,-0.04814542084932327
1659103345823308800,4.497308837890625,9.803812980651855,0.23094940185546875,-0.04811829328536987
1659103345832979700,4.506979736328125,9.803812980651855,0.230927973985672,-0.048064012080430984
1659103345842650600,4.516650634765625,9.803810119628906,0.23107969760894775,-0.048039760440588
1659103345852321800,4.52632177734375,9.80380630493164,0.23124858736991882,-0.048042356967926025
1659103345861992700,4.53599267578125,9.803805351257324,0.23120632767677307,-0.04818617179989815
1659103345871663900,4.545663818359375,9.803799629211426,0.23145155608654022,-0.048233482986688614
1659103345881334800,4.555334716796875,9.803792953491211,0.23173043131828308,-0.048283737152814865
1659103345891005700,4.565005615234375,9.803791999816895,0.23179754614830017,-0.048205409198999405
1659103345900676900,4.5746767578125,9.803792953491211,0.23174071311950684,-0.048342470079660416
1659103345910347800,4.58434765625,9.803791999816895,0.2318069040775299,-0.04825730249285698
1659103345920018700,4.594018798828125,9.803792953491211,0.23173996806144714,-0.048058513551950455
1659103345929689600,4.603689697265625,9.80379867553711,0.23154012858867645,-0.04809153079986572
1659103345939360800,4.61336083984375,9.803800582885742,0.23143237829208374,-0.04806925356388092
1659103345949031700,4.62303173828125,9.803804397583008,0.23130013048648834,-0.04811401665210724
1659103345958702600,4.63270263671875,9.80380630493164,0.23120006918907166,-0.048080191016197205
1659103345968373800,4.642373779296875,9.803808212280273,0.23114418983459473,-0.04801769182085991
1659103345978044700,4.652044677734375,9.803811073303223,0.23107482492923737,-0.047875043004751205
1659103345987715800,4.6617158203125,9.80380916595459,0.23117658495903015,-0.047730132937431335
1659103345997386800,4.67138671875,9.803812026977539,0.2310199737548828,-0.047852322459220886
1659103346007057700,4.6810576171875,9.803814888000488,0.2309054732322693,-0.04778389632701874
1659103346016728800,4.690728759765625,9.803821563720703,0.2306230068206787,-0.04782870411872864
1659103346026399700,4.700399658203125,9.803816795349121,0.23075330257415771,-0.047983940690755844
1659103346036070700,4.710070556640625,9.803820610046387,0.23054666817188263,-0.048166558146476746
1659103346045741800,4.719741943359375,9.80382251739502,0.23055830597877502,-0.048069801181554794
1659103346055412700,4.729412841796875,9.80382251739502,0.230526402592659,-0.0480823814868927
1659103346065083600,4.739083740234375,9.80383014678955,0.2301918864250183,-0.047970037907361984
1659103346074754800,4.7487548828125,9.803834915161133,0.2300892472267151,-0.04770803079009056
1659103346084425700,4.75842578125,9.803833961486816,0.23013240098953247,-0.04767011106014252
1659103346094097000,4.768096923828125,9.80383014678955,0.23025117814540863,-0.047829627990722656
1659103346103767800,4.777767822265625,9.80383014678955,0.2302468717098236,-0.047900404781103134
1659103346113438700,4.787438720703125,9.803829193115234,0.2303318828344345,-0.04773053526878357
1659103346123110000,4.79710986328125,9.803828239440918,0.23037873208522797,-0.047720201313495636
1659103346132780800,4.80678076171875,9.803826332092285,0.2304033488035202,-0.04783905670046806
1659103346142451700,4.81645166015625,9.803832054138184,0.23016460239887238,-0.04781636968255043
1659103346152122600,4.82612255859375,9.803828239440918,0.23031865060329437,-0.048012711107730865
1659103346161793800,4.835793701171875,9.803827285766602,0.23027709126472473,-0.048237144947052
1659103346171464700,4.845464599609375,9.803832054138184,0.23010018467903137,-0.04826110601425171
1659103346181135600,4.855135498046875,9.803827285766602,0.23022617399692535,-0.048341862857341766
1659103346190806800,4.864806884765625,9.803824424743652,0.230391725897789,-0.048371173441410065
1659103346200477700,4.874477783203125,9.80383014678955,0.2301674783229828,-0.04818080738186836
1659103346210148900,4.88414892578125,9.803828239440918,0.2302863597869873,-0.04797336086630821
1659103346219819800,4.89381982421875,9.8038330078125,0.23011837899684906,-0.0478510707616806
1659103346229491000,4.903490966796875,9.803836822509766,0.22994907200336456,-0.04793804511427879
1659103346239161900,4.913161865234375,9.803834915161133,0.22999949753284454,-0.04803238436579704
1659103346248832800,4.922832763671875,9.803837776184082,0.22986994683742523,-0.04820272698998451
1659103346258504000,4.93250390625,9.803836822509766,0.2298501580953598,-0.04840289428830147
1659103346268174800,4.9421748046875,9.803834915161133,0.22988483309745789,-0.048534028232097626
1659103346277845800,4.951845703125,9.803834915161133,0.2298811972141266,-0.04855458065867424
1659103346287517000,4.961516845703125,9.803836822509766,0.22979161143302917,-0.048681486397981644
1659103346297187800,4.971187744140625,9.803838729858398,0.2297162115573883,-0.048666566610336304
1659103346306858800,4.980858642578125,9.803834915161133,0.22987346351146698,-0.048713237047195435
1659103346316530000,4.990530029296875,9.803826332092285,0.23013636469841003,-0.048946842551231384
1659103346326200800,5.000200927734375,9.803824424743652,0.23027881979942322,-0.048849575221538544
1659103346335872000,5.0098720703125,9.803825378417969,0.230280339717865,-0.0487242229282856
1659103346345543000,5.01954296875,9.803825378417969,0.23020102083683014,-0.049016255885362625
1659103346355213800,5.0292138671875,9.803820610046387,0.2304522693157196,-0.048923466354608536
1659103346364885000,5.038885009765625,9.803825378417969,0.2302693873643875,-0.04874386638402939
1659103346374556000,5.048555908203125,9.80382251739502,0.23043732345104218,-0.04856368899345398
1659103346384226800,5.058226806640625,9.803826332092285,0.23029696941375732,-0.04843050241470337
1659103346393898000,5.06789794921875,9.803826332092285,0.23028887808322906,-0.0484907403588295
1659103346403569000,5.07756884765625,9.803827285766602,0.23023472726345062,-0.0486258901655674
1659103346413239800,5.08723974609375,9.80382251739502,0.23039858043193817,-0.048712678253650665
1659103346422911000,5.096910888671875,9.803820610046387,0.23047995567321777,-0.04870041832327843
1659103346432582000,5.106581787109375,9.803815841674805,0.230662003159523,-0.04881493002176285
1659103346442252800,5.116252685546875,9.803811073303223,0.23084460198879242,-0.04878121614456177
1659103346451924000,5.125924072265625,9.803812026977539,0.23079167306423187,-0.04896370694041252
1659103346461595100,5.13559521484375,9.803812026977539,0.2307932823896408,-0.04883592948317528
1659103346471266000,5.14526611328125,9.803811073303223,0.23083330690860748,-0.04887066036462784
1659103346480937000,5.15493701171875,9.803810119628906,0.2308546006679535,-0.048971399664878845
1659103346490608000,5.164608154296875,9.803810119628906,0.23086728155612946,-0.04908258095383644
1659103346500279000,5.174279052734375,9.80380630493164,0.23102538287639618,-0.04902225732803345
1659103346509950000,5.183949951171875,9.80380630493164,0.23098275065422058,-0.04920509085059166
1659103346519621000,5.19362109375,9.80380916595459,0.230904683470726,-0.049081895500421524
1659103346529292000,5.2032919921875,9.803815841674805,0.23054462671279907,-0.04924696311354637
1659103346538963000,5.212962890625,9.80381965637207,0.23036247491836548,-0.04925040528178215
1659103346548634000,5.222634033203125,9.803820610046387,0.2303316444158554,-0.04927709698677063
1659103346558305000,5.232304931640625,9.803815841674805,0.23055924475193024,-0.049183718860149384
1659103346567976000,5.241975830078125,9.803811073303223,0.23074452579021454,-0.04929839074611664
1659103346577647000,5.251647216796875,9.803805351257324,0.23095999658107758,-0.04949142038822174
1659103346587318000,5.261318115234375,9.803804397583008,0.23097234964370728,-0.0496407188475132
1659103346596989200,5.2709892578125,9.803803443908691,0.23099687695503235,-0.04958982765674591
1659103346606660000,5.28066015625,9.803803443908691,0.23104062676429749,-0.049459364265203476
1659103346616331300,5.290331298828125,9.803801536560059,0.23110570013523102,-0.04940332472324371
1659103346626002200,5.300002197265625,9.803796768188477,0.23132942616939545,-0.049435995519161224
1659103346635673000,5.309673095703125,9.803793907165527,0.23153075575828552,-0.049053121358156204
1659103346645344300,5.31934423828125,9.803794860839844,0.23152241110801697,-0.04891227185726166
1659103346655015200,5.32901513671875,9.80379581451416,0.23142576217651367,-0.04914939031004906
1659103346664686300,5.338686279296875,9.803800582885742,0.23123954236507416,-0.04901760071516037
1659103346674357200,5.348357177734375,9.803801536560059,0.23123890161514282,-0.04891800507903099
1659103346684028200,5.358028076171875,9.803802490234375,0.2311902493238449,-0.04889785870909691
1659103346693699300,5.36769921875,9.803801536560059,0.2312149703502655,-0.04903604835271835
1659103346703370200,5.377370361328125,9.803803443908691,0.23113581538200378,-0.048907697200775146
1659103346713041200,5.387041259765625,9.803802490234375,0.23117972910404205,-0.04892024025321007
1659103346722712300,5.39671240234375,9.803797721862793,0.23137246072292328,-0.04884907975792885
1659103346732383200,5.40638330078125,9.803800582885742,0.2313138097524643,-0.04885364696383476
1659103346742054400,5.416054443359375,9.803804397583008,0.23113296926021576,-0.04888693243265152
1659103346751725300,5.425725341796875,9.80380630493164,0.23096826672554016,-0.049020882695913315
1659103346761396500,5.435396484375,9.80380630493164,0.23097896575927734,-0.04907052218914032
1659103346771067400,5.4450673828125,9.803811073303223,0.23081819713115692,-0.04908592626452446
1659103346780738600,5.454738525390625,9.803812026977539,0.23078274726867676,-0.048966217786073685
1659103346790409500,5.464409423828125,9.803814888000488,0.23059026896953583,-0.049305494874715805
1659103346800080400,5.474080322265625,9.803813934326172,0.23062735795974731,-0.049223460257053375
1659103346809751600,5.48375146484375,9.803818702697754,0.23046450316905975,-0.04915941134095192
1659103346819422500,5.49342236328125,9.80381965637207,0.23037277162075043,-0.04921790957450867
1659103346829093400,5.50309326171875,9.80381965637207,0.23041175305843353,-0.049163926392793655
1659103346838764500,5.5127646484375,9.803817749023438,0.23045504093170166,-0.04920877143740654
1659103346848435500,5.522435546875,9.803823471069336,0.2302437275648117,-0.049382295459508896
1659103346858106600,5.532106689453125,9.803821563720703,0.23029233515262604,-0.04934857785701752
1659103346867777500,5.541777587890625,9.80382251739502,0.23026573657989502,-0.04942998290061951
1659103346877448400,5.551448486328125,9.803827285766602,0.2300873100757599,-0.04928223788738251
1659103346887119600,5.56111962890625,9.80381965637207,0.2303750216960907,-0.04941675439476967
1659103346896790500,5.57079052734375,9.803816795349121,0.23044481873512268,-0.049557771533727646
1659103346906461700,5.580461669921875,9.803820610046387,0.2303282469511032,-0.049471497535705566
1659103346916132600,5.590132568359375,9.803821563720703,0.23024483025074005,-0.04942646995186806
1659103346925803800,5.5998037109375,9.803824424743652,0.23018109798431396,-0.04924236238002777
1659103346935474700,5.609474609375,9.803821563720703,0.2303125113248825,-0.04925917088985443
1659103346945145900,5.619145751953125,9.803818702697754,0.2304619699716568,-0.0490482933819294
1659103346954816800,5.628816650390625,9.803821563720703,0.23036420345306396,-0.04907497018575668
1659103346964487700,5.63848779296875,9.803820610046387,0.23043479025363922,-0.049064621329307556
1659103346974158800,5.648158935546875,9.803821563720703,0.23030152916908264,-0.049212124198675156
1659103346983829800,5.657829833984375,9.803820610046387,0.23038628697395325,-0.049101606011390686
1659103346993500700,5.667500732421875,9.803820610046387,0.2303200364112854,-0.049417272210121155
1659103347003171800,5.677171875,9.803823471069336,0.23028181493282318,-0.04922669380903244
1659103347012842800,5.6868427734375,9.803826332092285,0.23012831807136536,-0.0491054505109787
1659103347022514000,5.696513916015625,9.803824424743652,0.23021355271339417,-0.04907246306538582
1659103347032184800,5.706184814453125,9.803824424743652,0.2302832305431366,-0.04895980283617973
1659103347041856000,5.71585595703125,9.803827285766602,0.23012220859527588,-0.04899903014302254
1659103347051527000,5.72552685546875,9.803829193115234,0.2300652414560318,-0.048779167234897614
1659103347061197800,5.73519775390625,9.803829193115234,0.23008252680301666,-0.04879118502140045
1659103347070869000,5.744868896484375,9.803831100463867,0.22996817529201508,-0.04891447722911835
1659103347080540000,5.754539794921875,9.803836822509766,0.2297598421573639,-0.048798270523548126
1659103347090211000,5.764211181640625,9.803837776184082,0.22970545291900635,-0.04863026365637779
1659103347099882000,5.773882080078125,9.803841590881348,0.22961513698101044,-0.04847634583711624
1659103347109553200,5.78355322265625,9.803849220275879,0.22931396961212158,-0.04855487123131752
1659103347119224000,5.79322412109375,9.803847312927246,0.22940480709075928,-0.04843371734023094
1659103347128895200,5.802895263671875,9.803844451904297,0.22955110669136047,-0.04834305867552757
1659103347138566100,5.812566162109375,9.803842544555664,0.22961126267910004,-0.04839493706822395
1659103347148237000,5.822237060546875,9.803842544555664,0.22955553233623505,-0.04846372827887535
1659103347157908200,5.831908203125,9.803844451904297,0.22949662804603577,-0.04842935502529144
1659103347167579100,5.8415791015625,9.803847312927246,0.22939260303974152,-0.048625797033309937
1659103347177250300,5.851250244140625,9.803848266601562,0.22932961583137512,-0.04843328893184662
1659103347186921200,5.860921142578125,9.803849220275879,0.22934535145759583,-0.04840285703539848
1659103347196592400,5.87059228515625,9.803847312927246,0.2293669879436493,-0.04839007556438446
1659103347206263300,5.88026318359375,9.80384635925293,0.22944077849388123,-0.048488687723875046
1659103347215934200,5.889934326171875,9.803844451904297,0.22951999306678772,-0.048492178320884705
1659103347225605400,5.89960546875,9.803837776184082,0.229684978723526,-0.04879102110862732
1659103347235276300,5.9092763671875,9.80383586883545,0.2298012226819992,-0.04867729917168617
1659103347244947500,5.918947509765625,9.80383586883545,0.22987529635429382,-0.048535458743572235
1659103347254618400,5.928618408203125,9.8038330078125,0.22997266054153442,-0.04858151078224182
1659103347264289300,5.938289306640625,9.803834915161133,0.2298591285943985,-0.048488497734069824
1659103347273960400,5.94796044921875,9.803834915161133,0.2299177646636963,-0.048429593443870544
1659103347283631400,5.95763134765625,9.80383586883545,0.2298179566860199,-0.04865576699376106
1659103347293302500,5.967302490234375,9.803837776184082,0.22981855273246765,-0.04846199229359627
1659103347302973400,5.976973388671875,9.803839683532715,0.22974596917629242,-0.048319268971681595
1659103347312644600,5.98664453125,9.803836822509766,0.2298436313867569,-0.048390306532382965
1659103347322315500,5.9963154296875,9.803833961486816,0.22997891902923584,-0.048479367047548294
1659103347331986700,6.005986572265625,9.80383586883545,0.22986768186092377,-0.048420388251543045
1659103347341657600,6.01565771484375,9.803836822509766,0.22980688512325287,-0.04847841337323189
1659103347351328800,6.025328857421875,9.803839683532715,0.2296789288520813,-0.04852345958352089
1659103347360999700,6.034999755859375,9.803839683532715,0.22969308495521545,-0.04863907769322395
1659103347370670800,6.0446708984375,9.803845405578613,0.22942949831485748,-0.04858389124274254
1659103347380341800,6.054341796875,9.803849220275879,0.22922760248184204,-0.04882961884140968
1659103347390013000,6.064012939453125,9.80384635925293,0.22933967411518097,-0.04893061891198158
1659103347399683800,6.073683837890625,9.80384635925293,0.22930273413658142,-0.04890001565217972
1659103347409354800,6.083354736328125,9.80384635925293,0.22930485010147095,-0.04905233532190323
1659103347419026000,6.09302587890625,9.803844451904297,0.2294073849916458,-0.0490642786026001
1659103347428696800,6.10269677734375,9.803839683532715,0.22962330281734467,-0.048983316868543625
1659103347438368000,6.112367919921875,9.803842544555664,0.22957617044448853,-0.04870099946856499
1659103347448039000,6.122038818359375,9.803841590881348,0.22957704961299896,-0.04855532944202423
1659103347457710000,6.1317099609375,9.803848266601562,0.22935251891613007,-0.04841543734073639
1659103347467381000,6.141381103515625,9.803848266601562,0.22935332357883453,-0.04852868244051933
1659103347477052200,6.15105224609375,9.803851127624512,0.2291574329137802,-0.04859602451324463
1659103347486723000,6.16072314453125,9.803853034973145,0.22908279299736023,-0.04878995567560196
1659103347496394000,6.17039404296875,9.803854942321777,0.22894294559955597,-0.04895196855068207
1659103347506065200,6.180065185546875,9.803853034973145,0.229014053940773,-0.049160443246364594
1659103347515736000,6.189736083984375,9.803847312927246,0.2291865199804306,-0.04937198385596275
1659103347525407200,6.1994072265625,9.803849220275879,0.22909601032733917,-0.04957454651594162
1659103347535078100,6.209078125,9.803851127624512,0.2290080487728119,-0.0494256429374218
1659103347544749300,6.218749267578125,9.803853034973145,0.22891758382320404,-0.04943888634443283
1659103347554420200,6.228420166015625,9.803854942321777,0.22885283827781677,-0.04925447702407837
1659103347564091400,6.23809130859375,9.80385684967041,0.22881804406642914,-0.04917426407337189
1659103347573762300,6.24776220703125,9.803857803344727,0.2288353592157364,-0.049036432057619095
1659103347583433200,6.25743310546875,9.80385971069336,0.22874069213867188,-0.04903453215956688
1659103347593104400,6.2671044921875,9.803858757019043,0.22879043221473694,-0.04890548810362816
1659103347602775600,6.276775634765625,9.803855895996094,0.22891952097415924,-0.04876668378710747
1659103347612446500,6.286446533203125,9.803853988647461,0.2289978563785553,-0.04891940578818321
1659103347622117600,6.29611767578125,9.803850173950195,0.22917629778385162,-0.048861194401979446
1659103347631788500,6.30578857421875,9.803849220275879,0.22919878363609314,-0.04894396290183067
1659103347641459700,6.315459716796875,9.803852081298828,0.22912074625492096,-0.04878434166312218
1659103347651130600,6.325130615234375,9.803847312927246,0.22928297519683838,-0.04888540506362915
1659103347660801800,6.3348017578125,9.803847312927246,0.22935070097446442,-0.04872000589966774
1659103347670472700,6.34447265625,9.803840637207031,0.22959892451763153,-0.048765651881694794
1659103347680144000,6.354143798828125,9.803842544555664,0.229556605219841,-0.04866863042116165
1659103347689814800,6.363814697265625,9.803838729858398,0.22968044877052307,-0.04869351163506508
1659103347699485700,6.373485595703125,9.803833961486816,0.22992105782032013,-0.04867931082844734
1659103347709156900,6.383156982421875,9.803834915161133,0.2298642098903656,-0.0486425943672657
1659103347718827800,6.392827880859375,9.803833961486816,0.22992543876171112,-0.048669081181287766
1659103347728499000,6.4024990234375,9.80383014678955,0.23011259734630585,-0.04856817051768303
1659103347738169900,6.412169921875,9.803828239440918,0.23019681870937347,-0.048514705151319504
1659103347747841000,6.421841064453125,9.803824424743652,0.23033207654953003,-0.04849771037697792
1659103347757512000,6.431511962890625,9.803823471069336,0.23038095235824585,-0.04862299561500549
1659103347767183000,6.44118310546875,9.803821563720703,0.23039235174655914,-0.048847097903490067
1659103347776854000,6.45085400390625,9.803823471069336,0.23030993342399597,-0.048730552196502686
1659103347786525200,6.460525146484375,9.803824424743652,0.23028071224689484,-0.04856504872441292
1659103347796196000,6.470196044921875,9.803825378417969,0.2303401678800583,-0.0484299398958683
1659103347805867300,6.4798671875,9.80382251739502,0.23043707013130188,-0.048519376665353775
1659103347815538200,6.4895380859375,9.803817749023438,0.23068220913410187,-0.04842635616660118
1659103347825209300,6.499209228515625,9.803812980651855,0.2308260202407837,-0.04841316491365433
1659103347834880300,6.50888037109375,9.803817749023438,0.23067860305309296,-0.04829441383481026
1659103347844551400,6.518551513671875,9.803816795349121,0.2307327836751938,-0.0482899434864521
1659103347854222300,6.528222412109375,9.803817749023438,0.23067952692508698,-0.048200663179159164
1659103347863893200,6.537893310546875,9.80381965637207,0.23062224686145782,-0.04818413034081459
1659103347873564400,6.547564453125,9.803816795349121,0.23074892163276672,-0.048008207231760025
1659103347883235300,6.5572353515625,9.803817749023438,0.2307596206665039,-0.047895703464746475
1659103347892906500,6.566906494140625,9.803816795349121,0.2308007925748825,-0.047852419316768646
1659103347902577400,6.576577392578125,9.803813934326172,0.2309509664773941,-0.047652315348386765
1659103347912248600,6.58624853515625,9.803812026977539,0.2310602068901062,-0.04757470637559891
1659103347921919500,6.59591943359375,9.803820610046387,0.2307036817073822,-0.04755007475614548
1659103347931590700,6.605590576171875,9.803824424743652,0.2304685115814209,-0.04766003042459488
1659103347941261600,6.615261474609375,9.80382251739502,0.23059575259685516,-0.04773353412747383
1659103347950932700,6.6249326171875,9.803815841674805,0.230866476893425,-0.04779304563999176
1659103347960603600,6.634603759765625,9.803817749023438,0.23074254393577576,-0.04799143970012665
1659103347970274800,6.64427490234375,9.803816795349121,0.23079872131347656,-0.04794808104634285
1659103347979945700,6.65394580078125,9.803813934326172,0.2309601902961731,-0.04784810543060303
1659103347989617000,6.663616943359375,9.803812026977539,0.23105402290821075,-0.04773635417222977
1659103347999287800,6.673287841796875,9.803812980651855,0.23102030158042908,-0.04752165079116821
1659103348008959000,6.682958984375,9.803815841674805,0.23093555867671967,-0.047419872134923935
1659103348018630000,6.6926298828125,9.803816795349121,0.23085850477218628,-0.047686804085969925
1659103348028301000,6.702301025390625,9.803815841674805,0.23092998564243317,-0.0474301278591156
1659103348037972000,6.711971923828125,9.803813934326172,0.23102346062660217,-0.04740689694881439
1659103348047643100,6.72164306640625,9.80382251739502,0.23068419098854065,-0.047293420881032944
1659103348057314000,6.73131396484375,9.803821563720703,0.23070737719535828,-0.04752052575349808
1659103348066985200,6.740985107421875,9.80381965637207,0.2307477742433548,-0.04758390039205551
1659103348076656400,6.750656494140625,9.803815841674805,0.23090696334838867,-0.04752904549241066
1659103348086327300,6.760327392578125,9.803817749023438,0.2308667153120041,-0.04752533882856369
1659103348095998500,6.76999853515625,9.803824424743652,0.23059451580047607,-0.047502659261226654
1659103348105669400,6.77966943359375,9.803824424743652,0.2305448055267334,-0.04759807139635086
1659103348115340500,6.789340576171875,9.803827285766602,0.2304082214832306,-0.0474730022251606
1659103348125011500,6.799011474609375,9.803827285766602,0.23047779500484467,-0.04746590554714203
1659103348134682600,6.8086826171875,9.803827285766602,0.23041149973869324,-0.04764764755964279
1659103348144353500,6.818353515625,9.803824424743652,0.2304721623659134,-0.04775045067071915
1659103348154024700,6.828024658203125,9.803829193115234,0.2302751988172531,-0.0477982796728611
1659103348163695600,6.837695556640625,9.803831100463867,0.23021000623703003,-0.04772074520587921
1659103348173366800,6.84736669921875,9.803837776184082,0.2299460619688034,-0.04764886200428009
1659103348183037700,6.85703759765625,9.803839683532715,0.2298702746629715,-0.04757056012749672
1659103348192708900,6.866708984375,9.803840637207031,0.2298477590084076,-0.047425635159015656
1659103348202379800,6.8763798828125,9.803840637207031,0.22992359101772308,-0.047142624855041504
1659103348212051000,6.886051025390625,9.803840637207031,0.2299935519695282,-0.04694673418998718
1659103348221721900,6.895721923828125,9.803841590881348,0.22989614307880402,-0.04705206677317619
1659103348231393000,6.90539306640625,9.80384349822998,0.22986485064029694,-0.04707706347107887
1659103348241064000,6.91506396484375,9.803841590881348,0.2298593670129776,-0.047159455716609955
1659103348250735000,6.924735107421875,9.803847312927246,0.2297039031982422,-0.047101035714149475
1659103348260406000,6.934406005859375,9.803847312927246,0.22965723276138306,-0.04720883443951607
1659103348270077200,6.9440771484375,9.803847312927246,0.22961443662643433,-0.04720471426844597
1659103348279748000,6.953748046875,9.803851127624512,0.2295204997062683,-0.04706599935889244
1659103348289419300,6.963419189453125,9.803853034973145,0.229470893740654,-0.047031134366989136
1659103348299090200,6.973090087890625,9.803854942321777,0.22934117913246155,-0.047012463212013245
1659103348308761300,6.98276123046875,9.803853034973145,0.229476660490036,-0.04693809151649475
1659103348318432300,6.992432373046875,9.80384349822998,0.22985456883907318,-0.04699951037764549
1659103348328103400,7.002103515625,9.80384349822998,0.2298315465450287,-0.046952024102211
1659103348337774300,7.0117744140625,9.803845405578613,0.22979068756103516,-0.046996790915727615
1659103348347445500,7.021445556640625,9.80384349822998,0.22985100746154785,-0.04711081087589264
1659103348357116400,7.031116455078125,9.80384635925293,0.22969955205917358,-0.04710319638252258
1659103348366787600,7.04078759765625,9.803841590881348,0.2298600673675537,-0.047175318002700806
1659103348376458500,7.05045849609375,9.803840637207031,0.2299664318561554,-0.0470755510032177
1659103348386129700,7.060129638671875,9.803838729858398,0.2300337255001068,-0.047167107462882996
1659103348395800600,7.069800537109375,9.80383586883545,0.23018185794353485,-0.04699879512190819
1659103348405471700,7.0794716796875,9.803834915161133,0.23020698130130768,-0.0469738133251667
1659103348415143000,7.089142822265625,9.8038330078125,0.23030628263950348,-0.046865690499544144
1659103348424813800,7.098813720703125,9.803836822509766,0.23012441396713257,-0.04701724648475647
1659103348434485000,7.108485107421875,9.803834915161133,0.2302408516407013,-0.04701879248023033
1659103348444156000,7.118156005859375,9.8038330078125,0.23025554418563843,-0.047015298157930374
1659103348453827000,7.1278271484375,9.803838729858398,0.23002752661705017,-0.0470593124628067
1659103348463498000,7.137498046875,9.803839683532715,0.23000293970108032,-0.047116219997406006
1659103348473169200,7.147169189453125,9.803839683532715,0.229918971657753,-0.04734649509191513
1659103348482840000,7.156840087890625,9.803844451904297,0.22970421612262726,-0.0475100539624691
1659103348492511200,7.16651123046875,9.80384349822998,0.2296682894229889,-0.04774300381541252
1659103348502182100,7.17618212890625,9.80384349822998,0.2296546846628189,-0.04792927950620651
1659103348511853300,7.185853271484375,9.803844451904297,0.22958022356033325,-0.04804815351963043
1659103348521524200,7.195524169921875,9.803842544555664,0.229646697640419,-0.04807481914758682
1659103348531195400,7.2051953125,9.803844451904297,0.22958849370479584,-0.04804230108857155
1659103348540866300,7.2148662109375,9.80384349822998,0.22964221239089966,-0.047998297959566116
1659103348550537500,7.224537353515625,9.803844451904297,0.22959716618061066,-0.04794693738222122
1659103348560208400,7.23420849609375,9.80384349822998,0.22962336242198944,-0.04796714708209038
1659103348569879600,7.243879638671875,9.80384349822998,0.22965531051158905,-0.04779540374875069
1659103348579550500,7.253550537109375,9.803844451904297,0.22967559099197388,-0.047490790486335754
1659103348589221600,7.2632216796875,9.803847312927246,0.2296096831560135,-0.047335390001535416
1659103348598892800,7.272892822265625,9.803848266601562,0.22955597937107086,-0.04726356267929077
1659103348608563700,7.282563720703125,9.80384635925293,0.22968018054962158,-0.047379422932863235
1659103348618235000,7.29223486328125,9.803841590881348,0.2298414409160614,-0.04746485874056816
1659103348627905800,7.30190576171875,9.803842544555664,0.2297593653202057,-0.047472234815359116
1659103348637577000,7.311576904296875,9.803839683532715,0.22995641827583313,-0.04725206270813942
1659103348647248000,7.321247802734375,9.803834915161133,0.2301439493894577,-0.047310952097177505
1659103348656919000,7.3309189453125,9.80383014678955,0.23033718764781952,-0.04739021882414818
1659103348666590000,7.34058984375,9.803827285766602,0.23047736287117004,-0.04714198410511017
1659103348676261000,7.35026123046875,9.803824424743652,0.23062336444854736,-0.047083530575037
1659103348685932000,7.35993212890625,9.803821563720703,0.23075614869594574,-0.047140419483184814
1659103348695603200,7.369603271484375,9.803816795349121,0.23095008730888367,-0.047151364386081696
1659103348705274400,7.3792744140625,9.803818702697754,0.23089434206485748,-0.047003041952848434
1659103348714945300,7.3889453125,9.803821563720703,0.2307790368795395,-0.046995725482702255
1659103348724616400,7.398616455078125,9.803820610046387,0.23078441619873047,-0.04715694859623909
1659103348734287400,7.408287353515625,9.803824424743652,0.23067761957645416,-0.046978823840618134
1659103348743958500,7.41795849609375,9.803820610046387,0.23082034289836884,-0.0470995232462883
1659103348753629400,7.42762939453125,9.803818702697754,0.230894073843956,-0.04699186980724335
1659103348763300600,7.437300537109375,9.803815841674805,0.2310067117214203,-0.04707454890012741
1659103348772971500,7.446971435546875,9.803821563720703,0.23078157007694244,-0.046947430819272995
1659103348782642700,7.456642578125,9.803818702697754,0.23089829087257385,-0.04694225266575813
1659103348792313600,7.466313720703125,9.803820610046387,0.23081396520137787,-0.04711303487420082
1659103348801984800,7.47598486328125,9.803817749023438,0.23087017238140106,-0.0472225584089756
1659103348811656000,7.485656005859375,9.803816795349121,0.23087434470653534,-0.047548629343509674
1659103348821326800,7.495326904296875,9.803815841674805,0.23084837198257446,-0.04775940626859665
1659103348830998000,7.504998046875,9.803812026977539,0.23104886710643768,-0.047731462866067886
1659103348840669000,7.5146689453125,9.803812980651855,0.23106727004051208,-0.0476805604994297
1659103348850340000,7.524340087890625,9.803817749023438,0.23083209991455078,-0.0475039966404438
1659103348860011000,7.534010986328125,9.803814888000488,0.23096255958080292,-0.04737227037549019
1659103348869682200,7.54368212890625,9.803815841674805,0.2309461385011673,-0.04734627902507782
1659103348879353000,7.55335302734375,9.803818702697754,0.2308424860239029,-0.047200992703437805
1659103348889024300,7.563024169921875,9.803816795349121,0.2309459149837494,-0.047151580452919006
1659103348898695400,7.5726953125,9.803820610046387,0.2307865470647812,-0.04718218743801117
1659103348908366300,7.582366455078125,9.803821563720703,0.23076926171779633,-0.04703286290168762
1659103348918037500,7.59203759765625,9.803821563720703,0.2307942658662796,-0.047124024480581284
1659103348927708400,7.60170849609375,9.80381965637207,0.2308429479598999,-0.047366295009851456
1659103348937379600,7.611379638671875,9.803821563720703,0.23073017597198486,-0.047422271221876144
1659103348947050500,7.621050537109375,9.803815841674805,0.23091435432434082,-0.04756675660610199
1659103348956721700,7.6307216796875,9.803816795349121,0.23089979588985443,-0.04753463342785835
1659103348966392600,7.640392578125,9.803814888000488,0.23094137012958527,-0.04757576063275337
1659103348976063700,7.650063720703125,9.803812980651855,0.23103277385234833,-0.04763699695467949
1659103348985735000,7.65973486328125,9.803812980651855,0.2310321182012558,-0.047540225088596344
1659103348995405800,7.66940576171875,9.803816795349121,0.23084719479084015,-0.04759582132101059
1659103349005077000,7.679076904296875,9.803817749023438,0.23085670173168182,-0.04737129807472229
1659103349014748000,7.688747802734375,9.803821563720703,0.23070986568927765,-0.04727858677506447
1659103349024419000,7.698419189453125,9.803825378417969,0.23055875301361084,-0.04731526970863342
1659103349034090000,7.708090087890625,9.803820610046387,0.23074494302272797,-0.04731917753815651
1659103349043761200,7.71776123046875,9.803815841674805,0.23095804452896118,-0.04722737893462181
1659103349053432300,7.727432373046875,9.803821563720703,0.2307763546705246,-0.04710385575890541
1659103349063103200,7.737103271484375,9.803820610046387,0.230796679854393,-0.04705643653869629
1659103349072774400,7.7467744140625,9.803815841674805,0.23099054396152496,-0.04726734757423401
1659103349082445300,7.7564453125,9.803812026977539,0.23113156855106354,-0.04723482206463814
1659103349092116500,7.766116455078125,9.803813934326172,0.2311125099658966,-0.047068651765584946
1659103349101787400,7.775787353515625,9.803811073303223,0.23121310770511627,-0.047081660479307175
1659103349111458600,7.78545849609375,9.803810119628906,0.23126567900180817,-0.04706290736794472
1659103349121129500,7.79512939453125,9.803817749023438,0.23091508448123932,-0.04719439148902893
1659103349130800600,7.804800537109375,9.803814888000488,0.2310207486152649,-0.04726273939013481
1659103349140471600,7.814471435546875,9.80381965637207,0.23080871999263763,-0.04724368080496788
1659103349150142700,7.824142822265625,9.803820610046387,0.2307397574186325,-0.0473787821829319
1659103349159813600,7.833813720703125,9.80382251739502,0.2306753545999527,-0.04735942557454109
1659103349169484800,7.84348486328125,9.803824424743652,0.2305588275194168,-0.04749489948153496
1659103349179156000,7.853156005859375,9.803821563720703,0.23067981004714966,-0.04757901653647423
1659103349188827000,7.862826904296875,9.803818702697754,0.23070643842220306,-0.047750264406204224
1659103349198498000,7.872498046875,9.803820610046387,0.23066869378089905,-0.04786133021116257
1659103349208169000,7.8821689453125,9.803820610046387,0.23065443336963654,-0.047821417450904846
1659103349217840000,7.891840087890625,9.803820610046387,0.23069675266742706,-0.04766026511788368
1659103349227511000,7.901510986328125,9.803817749023438,0.23079411685466766,-0.04773106426000595
1659103349237182200,7.91118212890625,9.803818702697754,0.2307453751564026,-0.047744203358888626
1659103349246853400,7.920853271484375,9.803818702697754,0.23077870905399323,-0.047677185386419296
1659103349256524300,7.930524169921875,9.803817749023438,0.23076015710830688,-0.047771766781806946
1659103349266195500,7.940195556640625,9.803821563720703,0.23065687716007233,-0.04756143316626549
1659103349275866400,7.949866455078125,9.803818702697754,0.2307594120502472,-0.04768361151218414
1659103349285537500,7.95953759765625,9.803820610046387,0.2306642085313797,-0.047833118587732315
1659103349295208400,7.96920849609375,9.80381965637207,0.23071320354938507,-0.04791249334812164
1659103349304879600,7.978879638671875,9.80382251739502,0.23055873811244965,-0.04800961911678314
1659103349314550800,7.98855078125,9.803823471069336,0.23044820129871368,-0.04824287071824074
1659103349324221700,7.9982216796875,9.803818702697754,0.23066218197345734,-0.04825470224022865
1659103349333892900,8.007892822265624,9.803825378417969,0.23037438094615936,-0.048107635229825974
1659103349343563800,8.017563720703125,9.803827285766602,0.23033078014850616,-0.047936152666807175
1659103349353235000,8.02723486328125,9.803832054138184,0.2301371693611145,-0.047963883727788925
1659103349362905900,8.03690576171875,9.803825378417969,0.2303558588027954,-0.04807914420962334
1659103349372577000,8.046576904296876,9.803824424743652,0.23042654991149902,-0.048112377524375916
1659103349382248200,8.056248291015624,9.803820610046387,0.2305929809808731,-0.048068247735500336
1659103349391919000,8.065919189453124,9.80382251739502,0.23054449260234833,-0.047983985394239426
1659103349401590300,8.07559033203125,9.80382251739502,0.23060381412506104,-0.04768378660082817
1659103349411261200,8.08526123046875,9.803825378417969,0.23047946393489838,-0.04773622006177902
1659103349420932400,8.094932373046875,9.80382251739502,0.23056243360042572,-0.04773956537246704
1659103349430603500,8.104603515625,9.803821563720703,0.23063349723815918,-0.04780643805861473
1659103349440274400,8.1142744140625,9.80382251739502,0.23056066036224365,-0.04780728742480278
1659103349449945600,8.123945556640624,9.803820610046387,0.23067602515220642,-0.04768647626042366
1659103349459616500,8.133616455078124,9.803824424743652,0.23051418364048004,-0.047658734023571014
1659103349469287700,8.14328759765625,9.803824424743652,0.23056338727474213,-0.047593146562576294
1659103349478958800,8.152958740234375,9.803824424743652,0.23051829636096954,-0.04773657023906708
1659103349488629800,8.162629638671875,9.803821563720703,0.23062187433242798,-0.04771488159894943
1659103349498301000,8.172301025390626,9.80382251739502,0.23060233891010284,-0.04754568263888359
1659103349507971800,8.181971923828126,9.803821563720703,0.23067305982112885,-0.04751190170645714
1659103349517643000,8.19164306640625,9.80381965637207,0.23073841631412506,-0.04745779186487198
1659103349527314000,8.20131396484375,9.80382251739502,0.23058000206947327,-0.04764765501022339
1659103349536985000,8.210985107421875,9.803828239440918,0.23033975064754486,-0.04765546694397926
1659103349546656300,8.22065625,9.803823471069336,0.2305387556552887,-0.047903481870889664
1659103349556327200,8.2303271484375,9.803825378417969,0.23049296438694,-0.04772403463721275
1659103349565998300,8.239998291015626,9.803821563720703,0.23063485324382782,-0.047617215663194656
1659103349575669200,8.249669189453124,9.803818702697754,0.23076231777668,-0.04764487221837044
1659103349585340400,8.25934033203125,9.803821563720703,0.2306317687034607,-0.04768701270222664
1659103349595011600,8.269011474609375,9.803820610046387,0.23068764805793762,-0.04759697988629341
1659103349604682500,8.2786826171875,9.803823471069336,0.23056228458881378,-0.04759843647480011
1659103349614353700,8.288353759765625,9.803817749023438,0.23078447580337524,-0.04760502651333809
1659103349624024600,8.298024658203126,9.803814888000488,0.23091423511505127,-0.047649722546339035
1659103349633695700,8.30769580078125,9.803814888000488,0.2309466451406479,-0.047622181475162506
1659103349643366700,8.31736669921875,9.803818702697754,0.23081886768341064,-0.047564808279275894
1659103349653037800,8.327037841796875,9.803817749023438,0.23084703087806702,-0.04759535938501358
1659103349662708700,8.336708740234375,9.803818702697754,0.230688214302063,-0.047925613820552826
1659103349672380000,8.3463798828125,9.803818702697754,0.23077726364135742,-0.04774675518274307
1659103349682051000,8.356051025390625,9.803815841674805,0.23088176548480988,-0.04775984585285187
1659103349691722000,8.365721923828126,9.803812980651855,0.23098118603229523,-0.04783928766846657
1659103349701393200,8.37539306640625,9.803807258605957,0.2312275469303131,-0.047919996082782745
1659103349711064000,8.38506396484375,9.803807258605957,0.23117195069789886,-0.047931358218193054
1659103349720735200,8.3947353515625,9.803803443908691,0.23132382333278656,-0.04803767800331116
1659103349730406400,8.404406494140625,9.803801536560059,0.23147061467170715,-0.047773994505405426
1659103349740077300,8.414077392578125,9.803804397583008,0.23134762048721313,-0.04767540469765663
1659103349749748500,8.42374853515625,9.803805351257324,0.23134416341781616,-0.04773058742284775
1659103349759419400,8.43341943359375,9.80380630493164,0.23125812411308289,-0.04776947200298309
1659103349769090600,8.443090576171874,9.803804397583008,0.23134362697601318,-0.047765374183654785
1659103349778761700,8.45276171875,9.803812980651855,0.2310260683298111,-0.04754792898893356
1659103349788432600,8.4624326171875,9.803816795349121,0.2308713048696518,-0.047472454607486725
1659103349798103800,8.472103759765625,9.80381965637207,0.23077689111232758,-0.04732798784971237
1659103349807774700,8.481774658203125,9.803818702697754,0.2307833880186081,-0.047446221113204956
1659103349817446000,8.49144580078125,9.803821563720703,0.23066268861293793,-0.04747164621949196
1659103349827117000,8.501116943359374,9.803820610046387,0.2306952029466629,-0.0476737841963768
1659103349836788000,8.5107880859375,9.803815841674805,0.2308797538280487,-0.04770452529191971
1659103349846459100,8.520459228515625,9.803810119628906,0.2310730516910553,-0.04792548343539238
1659103349856130000,8.530130126953125,9.803808212280273,0.23118707537651062,-0.0477532222867012
1659103349865801200,8.53980126953125,9.803803443908691,0.23139487206935883,-0.0477905310690403
1659103349875472400,8.549472412109376,9.803792953491211,0.23180873692035675,-0.04781961068511009
1659103349885143300,8.559143310546874,9.80379581451416,0.23168964684009552,-0.04794812574982643
1659103349894814500,8.568814453125,9.803796768188477,0.23165062069892883,-0.047796010971069336
1659103349904485400,8.5784853515625,9.803801536560059,0.2314683198928833,-0.04784728214144707
1659103349914156500,8.588156494140625,9.803799629211426,0.23154979944229126,-0.04769088700413704
1659103349923827700,8.59782763671875,9.803802490234375,0.23146475851535797,-0.047544337809085846
1659103349933498600,8.60749853515625,9.80380630493164,0.23134176433086395,-0.047428812831640244
1659103349943169800,8.617169677734376,9.803803443908691,0.23142877221107483,-0.0475151427090168
1659103349952841000,8.626841064453124,9.803803443908691,0.231440931558609,-0.04762804135680199
1659103349962512000,8.636511962890625,9.803799629211426,0.2316131889820099,-0.04750175029039383
1659103349972183000,8.64618310546875,9.80379581451416,0.23176074028015137,-0.047505252063274384
1659103349981854000,8.65585400390625,9.803791999816895,0.2319169044494629,-0.04755690321326256
1659103349991525000,8.665525146484375,9.803791046142578,0.2319500893354416,-0.047680631279945374
1659103350001196000,8.675196044921876,9.803788185119629,0.23200364410877228,-0.0478629432618618
1659103350010867200,8.6848671875,9.803788185119629,0.2320239543914795,-0.04791172966361046
1659103350020538000,8.6945380859375,9.80378532409668,0.23210735619068146,-0.04795988276600838
1659103350030209300,8.704209228515625,9.803781509399414,0.23228015005588531,-0.047888584434986115
1659103350039880400,8.71388037109375,9.803781509399414,0.23227980732917786,-0.047836385667324066
1659103350049551400,8.72355126953125,9.80378532409668,0.23212207853794098,-0.047867946326732635
1659103350059222500,8.733222412109376,9.803787231445312,0.23210731148719788,-0.047708529978990555
1659103350068893400,8.7428935546875,9.803786277770996,0.23215565085411072,-0.0476335771381855
1659103350078564600,8.752564697265624,9.803786277770996,0.232150137424469,-0.047470465302467346
1659103350088235800,8.76223583984375,9.803788185119629,0.23210163414478302,-0.04737618938088417
1659103350097906700,8.77190673828125,9.803789138793945,0.23204953968524933,-0.04745166376233101
1659103350107577900,8.781577880859375,9.803790092468262,0.2320111095905304,-0.047548215836286545
1659103350117248800,8.791248779296875,9.80378246307373,0.2322988063097,-0.04756403714418411
1659103350126920000,8.800919921875,9.803784370422363,0.23218850791454315,-0.047863297164440155
1659103350136591000,8.810591064453124,9.80378246307373,0.23224616050720215,-0.047954145818948746
1659103350146262000,8.820261962890624,9.803780555725098,0.2322966754436493,-0.048001423478126526
1659103350155933200,8.82993310546875,9.803783416748047,0.23219327628612518,-0.04797902703285217
1659103350165604400,8.839604248046875,9.803781509399414,0.23229028284549713,-0.047928519546985626
1659103350175275300,8.849275146484375,9.803779602050781,0.23234251141548157,-0.04803801700472832
1659103350184946400,8.858946533203126,9.803780555725098,0.23229622840881348,-0.04815465956926346
1659103350194617300,8.868617431640626,9.803786277770996,0.23205852508544922,-0.04813041165471077
1659103350204288500,8.87828857421875,9.803781509399414,0.23224155604839325,-0.04808901622891426
1659103350213959700,8.887959716796875,9.803778648376465,0.23236525058746338,-0.04805629700422287
1659103350223630600,8.897630615234375,9.803778648376465,0.23239970207214355,-0.04811130091547966
1659103350233301800,8.9073017578125,9.803775787353516,0.2324775904417038,-0.04815933108329773
1659103350242973000,8.916972900390626,9.803775787353516,0.2324753850698471,-0.04818589612841606
1659103350252643800,8.926643798828126,9.803775787353516,0.2324695587158203,-0.04822191596031189
1659103350262315000,8.93631494140625,9.803775787353516,0.23246902227401733,-0.04818680137395859
1659103350271986000,8.94598583984375,9.803775787353516,0.23246429860591888,-0.04823166877031326
1659103350281657000,8.955656982421875,9.803777694702148,0.23237375915050507,-0.04826432839035988
1659103350291328300,8.965328369140625,9.803772926330566,0.23260430991649628,-0.04818854480981827
1659103350300999200,8.974999267578125,9.803771018981934,0.23263058066368103,-0.04838964343070984
1659103350310670300,8.98467041015625,9.803770065307617,0.23269471526145935,-0.04836289957165718
1659103350320341200,8.99434130859375,9.803771018981934,0.23264719545841217,-0.04834313690662384
1659103350330012400,9.004012451171874,9.803771018981934,0.2326297163963318,-0.04843543469905853
1659103350339683300,9.013683349609375,9.8037748336792,0.23248891532421112,-0.04833340644836426
1659103350349354500,9.0233544921875,9.803775787353516,0.2324841469526291,-0.04820527881383896
1659103350359025700,9.033025634765625,9.803780555725098,0.2322719842195511,-0.048198748379945755
1659103350368696600,9.042696533203125,9.803778648376465,0.2323157787322998,-0.048244066536426544
1659103350378367700,9.05236767578125,9.803783416748047,0.23219501972198486,-0.048105403780937195
1659103350388038700,9.06203857421875,9.803778648376465,0.2323925495147705,-0.04799041524529457
1659103350397709800,9.071709716796875,9.803779602050781,0.23234471678733826,-0.04808298125863075
1659103350407381000,9.081381103515625,9.8037748336792,0.23254643380641937,-0.04814928025007248
1659103350417052000,9.091052001953125,9.803773880004883,0.23257558047771454,-0.048155028373003006
1659103350426723000,9.10072314453125,9.80377197265625,0.23262442648410797,-0.04822764918208122
1659103350436394200,9.110394287109376,9.80377197265625,0.2326236069202423,-0.04829194024205208
1659103350446065200,9.120065185546874,9.803768157958984,0.23271091282367706,-0.04864387959241867
1659103350455736300,9.129736328125,9.8037691116333,0.2326263040304184,-0.04882805049419403
1659103350465407500,9.139407470703125,9.803773880004883,0.2324175089597702,-0.04889073595404625
1659103350475078400,9.149078369140625,9.803771018981934,0.2324981838464737,-0.049003180116415024
1659103350484749600,9.15874951171875,9.803772926330566,0.2324083000421524,-0.04907234013080597
1659103350494420500,9.16842041015625,9.8037748336792,0.23233988881111145,-0.04910754784941673
1659103350504091600,9.178091552734376,9.8037691116333,0.2325257658958435,-0.04909161478281021
1659103350513762800,9.1877626953125,9.80377197265625,0.2324785739183426,-0.049043286591768265
1659103350523433700,9.197433837890625,9.803768157958984,0.23260141909122467,-0.04896553233265877
1659103350533105000,9.20710498046875,9.80377197265625,0.2323928326368332,-0.04917462170124054
1659103350542776000,9.216776123046875,9.803768157958984,0.23263750970363617,-0.04904869943857193
1659103350552447000,9.226447021484375,9.803765296936035,0.23269665241241455,-0.04903682321310043
1659103350562118100,9.2361181640625,9.803771018981934,0.23252013325691223,-0.04891731217503548
1659103350571789000,9.2457890625,9.8037691116333,0.23260843753814697,-0.04898633807897568
1659103350581460200,9.255460205078125,9.803771018981934,0.23250815272331238,-0.04881740361452103
1659103350591131100,9.265131103515625,9.803768157958984,0.23263712227344513,-0.048716768622398376
1659103350600802300,9.27480224609375,9.8037691116333,0.23258617520332336,-0.04881948605179787
1659103350610473500,9.284473388671875,9.803772926330566,0.23244571685791016,-0.04881457984447479
1659103350620144400,9.294144287109376,9.803779602050781,0.2321902960538864,-0.04882743954658508
1659103350629815600,9.303815673828124,9.803775787353516,0.23238210380077362,-0.04880915582180023
1659103350639486500,9.313486572265624,9.803772926330566,0.23249651491641998,-0.04878280311822891
1659103350649157600,9.32315771484375,9.803773880004883,0.23247681558132172,-0.048585765063762665
1659103350658828800,9.332828857421875,9.80376148223877,0.23298726975917816,-0.04853706806898117
1659103350668499700,9.342499755859375,9.803757667541504,0.23321686685085297,-0.04838716983795166
1659103350678171000,9.3521708984375,9.803763389587402,0.23294776678085327,-0.04829763248562813
1659103350687842000,9.361842041015626,9.803767204284668,0.23281913995742798,-0.048216260969638824
1659103350697513000,9.371512939453124,9.803767204284668,0.2328222244977951,-0.048360154032707214
1659103350707184000,9.38118408203125,9.803768157958984,0.23278124630451202,-0.048353344202041626
1659103350716855300,9.390855224609375,9.8037691116333,0.23271749913692474,-0.048255227506160736
1659103350726526200,9.400526123046875,9.803767204284668,0.23285558819770813,-0.04815918952226639
1659103350736197400,9.410197265625,9.8037691116333,0.23280185461044312,-0.047924838960170746
1659103350745868500,9.41986865234375,9.803770065307617,0.23272624611854553,-0.04798407852649689
1659103350755539500,9.42953955078125,9.803775787353516,0.23254096508026123,-0.04798046499490738
1659103350765210600,9.439210693359374,9.803777694702148,0.2324524223804474,-0.0480663925409317
1659103350774881500,9.448881591796875,9.803779602050781,0.2323869913816452,-0.04792366549372673
1659103350784552700,9.458552734375,9.80378532409668,0.23213164508342743,-0.04782027751207352
1659103350794223900,9.468223876953125,9.803786277770996,0.23208802938461304,-0.047830935567617416
1659103350803894800,9.477894775390626,9.803779602050781,0.23239083588123322,-0.04761115461587906
1659103350813566000,9.48756591796875,9.80378246307373,0.23227833211421967,-0.04768255352973938
1659103350823236900,9.49723681640625,9.803781509399414,0.23234149813652039,-0.04767439886927605
1659103350832908000,9.506907958984375,9.803779602050781,0.2324332445859909,-0.04762420430779457
1659103350842579000,9.516578857421875,9.803779602050781,0.232415109872818,-0.0475296825170517
1659103350852250000,9.52625,9.803780555725098,0.23238684237003326,-0.04759443923830986
1659103350861921300,9.53592138671875,9.803776741027832,0.2325679510831833,-0.04755791276693344
1659103350871592200,9.54559228515625,9.803775787353516,0.2326735258102417,-0.04731335863471031
1659103350881263400,9.555263427734374,9.803775787353516,0.23262742161750793,-0.047501154243946075
1659103350890934500,9.5649345703125,9.803775787353516,0.23269151151180267,-0.0471980907022953
1659103350900605400,9.57460546875,9.803777694702148,0.23255236446857452,-0.047335557639598846
1659103350910276600,9.584276611328125,9.803781509399414,0.23249204456806183,-0.04702872037887573
1659103350919947800,9.59394775390625,9.803781509399414,0.23242387175559998,-0.047217968851327896
1659103350929618700,9.60361865234375,9.803780555725098,0.23254846036434174,-0.047003451734781265
1659103350939289900,9.613289794921876,9.803784370422363,0.232428178191185,-0.0466887541115284
1659103350948961000,9.6229609375,9.80378532409668,0.23238062858581543,-0.04658685624599457
1659103350958632000,9.6326318359375,9.803788185119629,0.23232027888298035,-0.046476833522319794
1659103350968303000,9.64230322265625,9.80379581451416,0.2320394515991211,-0.04628976061940193
1659103350977974300,9.651974365234375,9.80379867553711,0.23188389837741852,-0.046202220022678375
1659103350987645200,9.661645263671875,9.803802490234375,0.23177170753479004,-0.04617234319448471
1659103350997316400,9.67131640625,9.803804397583008,0.23165668547153473,-0.046171776950359344
1659103351006987500,9.680987548828124,9.803803443908691,0.2317538857460022,-0.04617887735366821
1659103351016658400,9.690658447265625,9.80380630493164,0.23158782720565796,-0.046130482107400894
1659103351026329600,9.70032958984375,9.803807258605957,0.23163267970085144,-0.04595091938972473
1659103351036000500,9.71000048828125,9.803807258605957,0.2316250205039978,-0.04587233439087868
1659103351045671700,9.719671630859375,9.803801536560059,0.23185355961322784,-0.04570465162396431
1659103351055342600,9.729342529296876,9.80380630493164,0.2316654920578003,-0.04574377089738846
1659103351065013800,9.739013671875,9.803810119628906,0.2315044105052948,-0.04572983458638191
1659103351074685000,9.748684814453124,9.803812026977539,0.2314528375864029,-0.04572034254670143
1659103351084355800,9.75835595703125,9.803813934326172,0.23133280873298645,-0.04592268541455269
1659103351094027000,9.768027099609375,9.803813934326172,0.23128777742385864,-0.0460643470287323
1659103351103698200,9.7776982421875,9.803815841674805,0.2312077283859253,-0.0460745170712471
1659103351113369000,9.787369140625,9.803812980651855,0.23128770291805267,-0.04618187993764877
1659103351123040300,9.797040283203126,9.803812026977539,0.23140369355678558,-0.04615802317857742
1659103351132711400,9.80671142578125,9.803807258605957,0.23156975209712982,-0.04614553228020668
1659103351142382300,9.81638232421875,9.80380630493164,0.2315807044506073,-0.04611780494451523
1659103351152053500,9.826053466796875,9.80380630493164,0.23160961270332336,-0.046124983578920364
1659103351161724700,9.835724609375,9.803804397583008,0.23158743977546692,-0.04644840210676193
1659103351171395600,9.8453955078125,9.803802490234375,0.2317156344652176,-0.046569693833589554
1659103351181066800,9.855066650390626,9.803796768188477,0.23190703988075256,-0.04674986004829407
1659103351190738000,9.864738037109374,9.803800582885742,0.2316996455192566,-0.046919189393520355
1659103351200408800,9.874408935546874,9.803793907165527,0.23195064067840576,-0.04696406051516533
1659103351210080000,9.884080078125,9.803789138793945,0.23217613995075226,-0.04691002890467644
1659103351219751200,9.893751220703125,9.803786277770996,0.23229141533374786,-0.04698842018842697
1659103351229422000,9.903422119140625,9.803791046142578,0.23202648758888245,-0.0471770353615284
1659103351239093200,9.91309326171875,9.803793907165527,0.23187987506389618,-0.04721447825431824
1659103351248764200,9.92276416015625,9.803789138793945,0.2321465164422989,-0.047120217233896255
1659103351258435300,9.932435302734374,9.80379581451416,0.23191136121749878,-0.04696216061711311
1659103351268106200,9.942106201171875,9.803792953491211,0.23203496634960175,-0.046757426112890244
1659103351277777400,9.95177734375,9.80379867553711,0.23184329271316528,-0.046675313264131546
1659103351287448600,9.961448486328125,9.803794860839844,0.23197737336158752,-0.046618055552244186
1659103351297119500,9.971119384765625,9.803797721862793,0.2318965494632721,-0.04655827581882477
1659103351306790700,9.980790771484376,9.803796768188477,0.23190145194530487,-0.04649859294295311
1659103351316461800,9.9904619140625,9.803793907165527,0.23202480375766754,-0.046562615782022476
1659103351326132700,10.0001328125,9.803796768188477,0.23186425864696503,-0.046703290194272995
1659103351335804000,10.009803955078125,9.803792953491211,0.23202447593212128,-0.04673975706100464
1659103351345475000,10.01947509765625,9.803789138793945,0.2321544736623764,-0.046998344361782074
1659103351355146000,10.02914599609375,9.803792953491211,0.23204579949378967,-0.04676467180252075
1659103351364817200,10.038817138671876,9.803800582885742,0.23173858225345612,-0.04664413630962372
1659103351374488300,10.04848828125,9.803801536560059,0.23168253898620605,-0.046543676406145096
1659103351384159200,10.0581591796875,9.803811073303223,0.23143504559993744,-0.04625668004155159
1659103351393830400,10.067830322265625,9.803818702697754,0.2310807853937149,-0.046156469732522964
1659103351403501600,10.07750146484375,9.803820610046387,0.23109230399131775,-0.04592667892575264
1659103351413172500,10.08717236328125,9.803823471069336,0.23089906573295593,-0.04604598879814148
1659103351422843600,10.09684375,9.803816795349121,0.23119063675403595,-0.04587673023343086
1659103351432514800,10.106514892578126,9.80380630493164,0.23165930807590485,-0.046056006103754044
1659103351442185700,10.116185791015624,9.803797721862793,0.2319720983505249,-0.04608552157878876
1659103351451857000,10.12585693359375,9.803786277770996,0.2325373888015747,-0.045907314866781235
1659103351461527800,10.13552783203125,9.8037691116333,0.2331639528274536,-0.04611898586153984
1659103351471199000,10.145198974609375,9.80375862121582,0.23356744647026062,-0.04645907133817673
1659103351480870000,10.154869873046875,9.803753852844238,0.23368112742900848,-0.04664169251918793
1659103351490541000,10.164541015625,9.803757667541504,0.23346756398677826,-0.04694262146949768
1659103351500212200,10.174212158203124,9.803766250610352,0.23312701284885406,-0.046989426016807556
1659103351509883100,10.183883056640624,9.803780555725098,0.23251725733280182,-0.04697733372449875
1659103351519554300,10.19355419921875,9.803791046142578,0.23208807408809662,-0.04689937084913254
1659103351529225500,10.2032255859375,9.803801536560059,0.23169705271720886,-0.046656083315610886
1659103351538896400,10.212896484375,9.803812026977539,0.2313009798526764,-0.04643533378839493
1659103351548567600,10.222567626953126,9.803815841674805,0.23115935921669006,-0.046377841383218765
1659103351558238700,10.23223876953125,9.803824424743652,0.2308056652545929,-0.04630974680185318
1659103351567909600,10.24190966796875,9.80381965637207,0.23091696202754974,-0.046632785350084305
1659103351577580800,10.251580810546875,9.803813934326172,0.23117440938949585,-0.04659176990389824
1659103351587252000,10.261251953125,9.80380630493164,0.2315320521593094,-0.04647365212440491
1659103351596923000,10.2709228515625,9.803796768188477,0.2319084256887436,-0.04648473486304283
1659103351606594000,10.280593994140625,9.803788185119629,0.2322799563407898,-0.046459466218948364
1659103351616265200,10.29026513671875,9.803780555725098,0.23254837095737457,-0.04685375466942787
1659103351625936100,10.29993603515625,9.803784370422363,0.2324194461107254,-0.04671073332428932
1659103351635607300,10.309607177734375,9.803786277770996,0.2323123961687088,-0.046869657933712006
1659103351645278500,10.319278564453125,9.803789138793945,0.23216849565505981,-0.04693594202399254
1659103351654949400,10.328949462890625,9.803791046142578,0.23203203082084656,-0.04715099558234215
1659103351664620500,10.33862060546875,9.803793907165527,0.23194625973701477,-0.04712335392832756
1659103351674291500,10.34829150390625,9.803802490234375,0.23155269026756287,-0.047215256839990616
1659103351683962600,10.357962646484374,9.803802490234375,0.23162175714969635,-0.04693710058927536
1659103351693633800,10.3676337890625,9.803813934326172,0.23118849098682404,-0.04671935364603996
1659103351703304700,10.3773046875,9.803814888000488,0.23113007843494415,-0.04660062864422798
1659103351712976000,10.386975830078125,9.803814888000488,0.23113197088241577,-0.046640943735837936
1659103351722647000,10.39664697265625,9.803812980651855,0.2312704622745514,-0.046509794890880585
1659103351732318000,10.40631787109375,9.80380630493164,0.23151275515556335,-0.04654380679130554
1659103351741989000,10.415989013671876,9.803799629211426,0.23179751634597778,-0.04656492546200752
1659103351751660300,10.425660400390624,9.803790092468262,0.23215076327323914,-0.04670638591051102
1659103351761331200,10.435331298828125,9.80378532409668,0.2323632836341858,-0.04690716788172722
1659103351771002400,10.44500244140625,9.803778648376465,0.2326229065656662,-0.04692515730857849
1659103351780673500,10.454673583984375,9.803780555725098,0.23250314593315125,-0.047023266553878784
1659103351790344700,10.4643447265625,9.803792953491211,0.23200558125972748,-0.04703124612569809
1659103351800015600,10.474015625,9.803797721862793,0.23180367052555084,-0.047064125537872314
1659103351809686800,10.483686767578124,9.803801536560059,0.23159512877464294,-0.047104720026254654
1659103351819357700,10.493357666015624,9.803810119628906,0.23119452595710754,-0.04735672101378441
1659103351829028900,10.50302880859375,9.803817749023438,0.23087184131145477,-0.04734821245074272
1659103351838700000,10.512699951171875,9.803826332092285,0.23055069148540497,-0.04707729443907738
1659103351848371000,10.522370849609375,9.803825378417969,0.23060612380504608,-0.047050826251506805
1659103351858042000,10.5320419921875,9.803820610046387,0.2308029681444168,-0.047222547233104706
1659103351867713000,10.541713134765626,9.803817749023438,0.23091155290603638,-0.047123316675424576
1659103351877384200,10.55138427734375,9.803820610046387,0.23078863322734833,-0.04707517847418785
1659103351887055400,10.561055419921875,9.803811073303223,0.23117023706436157,-0.04724730923771858
1659103351896726300,10.570726318359375,9.803797721862793,0.23172049224376678,-0.04727525636553764
1659103351906397400,10.5803974609375,9.803790092468262,0.23208557069301605,-0.047301799058914185
1659103351916068600,10.590068603515626,9.803788185119629,0.23214569687843323,-0.04728979617357254
1659103351925739800,10.59973974609375,9.803789138793945,0.23211465775966644,-0.04725039750337601
1659103351935410700,10.60941064453125,9.803788185119629,0.23211339116096497,-0.04736056551337242
1659103351945081900,10.619081787109375,9.803791999816895,0.2319137006998062,-0.047566719353199005
1659103351954753000,10.6287529296875,9.80379867553711,0.23162683844566345,-0.04768058657646179
1659103351964424000,10.638423828125,9.803803443908691,0.23140491545200348,-0.04767389968037605
1659103351974095000,10.64809521484375,9.80380916595459,0.2311955839395523,-0.047588277608156204
1659103351983766300,10.657766357421876,9.803817749023438,0.23090964555740356,-0.047341156750917435
1659103351993437200,10.667437255859374,9.80382251739502,0.23070573806762695,-0.04728839173913002
1659103352003108400,10.6771083984375,9.80381965637207,0.23079365491867065,-0.047253090888261795
1659103352012779300,10.686779296875,9.803817749023438,0.23090262711048126,-0.047240231186151505
1659103352022450400,10.696450439453125,9.80380916595459,0.2312236726284027,-0.04732954502105713
1659103352032121600,10.70612158203125,9.803805351257324,0.2314416617155075,-0.0472748763859272
1659103352041792500,10.71579248046875,9.803803443908691,0.23152051866054535,-0.04710448160767555
1659103352051463700,10.725463623046876,9.803794860839844,0.2318434715270996,-0.047305695712566376
1659103352061134800,10.735134765625,9.803791046142578,0.23207330703735352,-0.04718707501888275
1659103352070805800,10.7448056640625,9.803786277770996,0.23222403228282928,-0.047337085008621216
1659103352080477000,10.754476806640625,9.803784370422363,0.2322501689195633,-0.04754573106765747
1659103352090148000,10.764148193359375,9.80378532409668,0.2321544885635376,-0.0476907417178154
1659103352099819000,10.773819091796875,9.803793907165527,0.23184369504451752,-0.04735501483082771
1659103352109490200,10.783490234375,9.803800582885742,0.23161400854587555,-0.047400474548339844
1659103352119161300,10.793161376953124,9.803803443908691,0.23151667416095734,-0.047109317034482956
1659103352128832300,10.802832275390625,9.803804397583008,0.2314828485250473,-0.04718015342950821
1659103352138503400,10.81250341796875,9.803812026977539,0.23120638728141785,-0.04699096828699112
1659103352148174600,10.822174560546875,9.803816795349121,0.2309698611497879,-0.047005265951156616
1659103352157845500,10.831845458984375,9.803815841674805,0.23104360699653625,-0.047044891864061356
1659103352167516700,10.8415166015625,9.803817749023438,0.23096153140068054,-0.04688766226172447
1659103352177187800,10.851187744140624,9.803814888000488,0.2310735583305359,-0.0469508096575737
1659103352186858800,10.860858642578124,9.803811073303223,0.23118789494037628,-0.047132737934589386
1659103352196530000,10.870530029296875,9.803810119628906,0.23124700784683228,-0.04716728627681732
1659103352206200800,10.880200927734375,9.803811073303223,0.23121598362922668,-0.04706168919801712
1659103352215872000,10.8898720703125,9.803805351257324,0.23146788775920868,-0.047074008733034134
1659103352225543200,10.899543212890626,9.803807258605957,0.23138724267482758,-0.047026731073856354
1659103352235214000,10.909214111328126,9.80380916595459,0.23125971853733063,-0.04729898273944855
1659103352244885200,10.91888525390625,9.803812980651855,0.2310655564069748,-0.047389376908540726
1659103352254556400,10.928556396484375,9.80382251739502,0.23064358532428741,-0.04751661419868469
1659103352264227300,10.938227294921875,9.803824424743652,0.23053795099258423,-0.04755032807588577
1659103352273898500,10.9478984375,9.803824424743652,0.23053106665611267,-0.04771527275443077
1659103352283569700,10.957569580078125,9.803826332092285,0.23040252923965454,-0.04780799150466919
1659103352293240800,10.96724072265625,9.803825378417969,0.230441614985466,-0.047999560832977295
1659103352302911700,10.976911865234374,9.803826332092285,0.23045097291469574,-0.0476822629570961
1659103352312583000,10.9865830078125,9.803824424743652,0.2304302304983139,-0.047893792390823364
1659103352322254000,10.996254150390625,9.80381965637207,0.23069053888320923,-0.04788036271929741
1659103352331925000,11.005925048828125,9.803817749023438,0.2307737022638321,-0.04796825349330902
1659103352341596200,11.01559619140625,9.803811073303223,0.23103611171245575,-0.04775886610150337
1659103352351267000,11.02526708984375,9.80380916595459,0.2311408668756485,-0.04779289662837982
1659103352360938200,11.034938232421876,9.803807258605957,0.2312658429145813,-0.04772254079580307
1659103352370609400,11.044609375,9.803802490234375,0.23145435750484467,-0.047762297093868256
1659103352380280300,11.0542802734375,9.803803443908691,0.23138953745365143,-0.04792090877890587
1659103352389951500,11.063951416015625,9.803810119628906,0.23106291890144348,-0.04798348248004913
1659103352399622700,11.07362255859375,9.803808212280273,0.2311185747385025,-0.04799880459904671
1659103352409293600,11.08329345703125,9.803808212280273,0.23109449446201324,-0.048124492168426514
1659103352418964700,11.09296484375,9.803816795349121,0.2307862788438797,-0.048149075359106064
1659103352428636000,11.102635986328124,9.803816795349121,0.23072989284992218,-0.048106849193573
1659103352438306800,11.112306884765625,9.803812026977539,0.23094366490840912,-0.04814054071903229
1659103352447978000,11.12197802734375,9.80380630493164,0.2311711460351944,-0.04808342456817627
1659103352457649200,11.131649169921875,9.803804397583008,0.23133480548858643,-0.047930289059877396
1659103352467320000,11.141320068359375,9.80379867553711,0.23151333630084991,-0.048068877309560776
1659103352476991200,11.1509912109375,9.803803443908691,0.2314247041940689,-0.047818075865507126
1659103352486662400,11.160662353515624,9.803799629211426,0.23148711025714874,-0.04784595966339111
1659103352496333600,11.17033349609375,9.803796768188477,0.23167511820793152,-0.04793756455183029
1659103352506004500,11.18000439453125,9.803792953491211,0.23175948858261108,-0.0481543131172657
1659103352515675600,11.189675537109375,9.803790092468262,0.23187963664531708,-0.04811098799109459
1659103352525346600,11.1993466796875,9.803792953491211,0.23183217644691467,-0.04804351553320885
1659103352535017700,11.209017822265626,9.803794860839844,0.23171570897102356,-0.048091329634189606
1659103352544689000,11.21868896484375,9.803789138793945,0.23190656304359436,-0.04813005402684212
1659103352554359800,11.22835986328125,9.803791999816895,0.23185837268829346,-0.04781873896718025
1659103352564031000,11.238031005859375,9.80379581451416,0.23174124956130981,-0.047704603523015976
1659103352573702100,11.2477021484375,9.803797721862793,0.23164168000221252,-0.04785323888063431
1659103352583373000,11.257373046875,9.803799629211426,0.23153096437454224,-0.047862280160188675
1659103352593044200,11.267044189453125,9.803791999816895,0.23189328610897064,-0.047673698514699936
1659103352602715400,11.27671533203125,9.80379867553711,0.2316504269838333,-0.047596219927072525
1659103352612386300,11.28638623046875,9.80379867553711,0.23162637650966644,-0.04769809916615486
1659103352622057500,11.296057373046875,9.803793907165527,0.23183539509773254,-0.047628726810216904
1659103352631728600,11.305728759765625,9.803786277770996,0.23215356469154358,-0.047624871134757996
1659103352641399800,11.31539990234375,9.803784370422363,0.23223596811294556,-0.04774865880608559
1659103352651070700,11.32507080078125,9.80378532409668,0.23222458362579346,-0.047630831599235535
1659103352660742000,11.334741943359376,9.803784370422363,0.23221056163311005,-0.04762258753180504
1659103352670412800,11.344412841796874,9.803781509399414,0.23232963681221008,-0.0474776066839695
1659103352680084000,11.354083984375,9.80378246307373,0.2323562651872635,-0.04743398353457451
1659103352689755100,11.363755126953125,9.803784370422363,0.2322608381509781,-0.0476888045668602
1659103352699426000,11.373426025390625,9.803791999816895,0.23195761442184448,-0.04755382239818573
1659103352709097200,11.38309716796875,9.80379581451416,0.23173965513706207,-0.04759928211569786
1659103352718768400,11.392768310546876,9.803802490234375,0.23152519762516022,-0.0474916473031044
1659103352728439300,11.402439208984376,9.803800582885742,0.23151914775371552,-0.04769401624798775
1659103352738110500,11.4121103515625,9.803800582885742,0.23159265518188477,-0.04742740839719772
1659103352747781600,11.42178173828125,9.803796768188477,0.23169776797294617,-0.04764186218380928
1659103352757452500,11.43145263671875,9.803792953491211,0.23193101584911346,-0.04745006933808327
1659103352767123700,11.441123779296875,9.803793907165527,0.2318682074546814,-0.04734073206782341
1659103352776795000,11.450794921875,9.803794860839844,0.23182998597621918,-0.04745059087872505
1659103352786466000,11.460466064453126,9.803792953491211,0.2319730818271637,-0.04734761267900467
1659103352796137000,11.470136962890624,9.803786277770996,0.23217862844467163,-0.04741279408335686
1659103352805808000,11.47980810546875,9.803786277770996,0.2321556657552719,-0.04744698479771614
1659103352815479300,11.489479248046875,9.803788185119629,0.232094869017601,-0.04749658331274986
1659103352825150200,11.499150146484375,9.803790092468262,0.2320563644170761,-0.047412656247615814
1659103352834821400,11.5088212890625,9.803791046142578,0.2319869101047516,-0.04756995290517807
1659103352844492300,11.5184921875,9.803793907165527,0.23181399703025818,-0.047772493213415146
1659103352854163500,11.52816357421875,9.803794860839844,0.2316691279411316,-0.048070620745420456
1659103352863834600,11.537834716796874,9.803793907165527,0.2316923588514328,-0.04815802350640297
1659103352873505500,11.547505615234375,9.803797721862793,0.23156797885894775,-0.04826267808675766
1659103352883176700,11.5571767578125,9.803797721862793,0.23161424696445465,-0.0479365698993206
1659103352892847900,11.566847900390625,9.803799629211426,0.23156295716762543,-0.04793480783700943
1659103352902518800,11.576518798828126,9.803796768188477,0.23159851133823395,-0.048128966242074966
1659103352912190000,11.58618994140625,9.803791046142578,0.23183594644069672,-0.048003893345594406
1659103352921861000,11.595861083984374,9.803790092468262,0.23189350962638855,-0.047969888895750046
1659103352931532000,11.605531982421875,9.803791999816895,0.23191848397254944,-0.04784741625189781
1659103352941203200,11.615203125,9.803793907165527,0.23178604245185852,-0.04781728237867355
1659103352950874400,11.624874267578125,9.803789138793945,0.23197026550769806,-0.047945261001586914
1659103352960545500,11.634545654296875,9.803793907165527,0.23177139461040497,-0.04792286828160286
1659103352970216400,11.644216552734376,9.803791999816895,0.23185625672340393,-0.04778938740491867
1659103352979887600,11.6538876953125,9.803794860839844,0.231759175658226,-0.04764864221215248
1659103352989558500,11.66355859375,9.803792953491211,0.2319014072418213,-0.047512639313936234
1659103352999229700,11.673229736328125,9.80379581451416,0.2318512201309204,-0.04738914966583252
1659103353008900900,11.68290087890625,9.803794860839844,0.23181398212909698,-0.047604575753211975
1659103353018571800,11.69257177734375,9.80379581451416,0.23171980679035187,-0.047706522047519684
1659103353028243000,11.702242919921876,9.803793907165527,0.23184598982334137,-0.04774702340364456
1659103353037914000,11.7119140625,9.803794860839844,0.2317337542772293,-0.047755539417266846
1659103353047585000,11.7215849609375,9.803794860839844,0.2317412793636322,-0.047805305570364
1659103353057256200,11.731256103515625,9.803791999816895,0.23182116448879242,-0.04793376848101616
1659103353066927400,11.74092724609375,9.803791999816895,0.2318183332681656,-0.04794228821992874
1659103353076598500,11.7505986328125,9.803794860839844,0.2317310869693756,-0.047848958522081375
1659103353086269400,11.76026953125,9.803794860839844,0.23176775872707367,-0.04765966162085533
1659103353095940600,11.769940673828126,9.803791999816895,0.23187710344791412,-0.047694019973278046
1659103353105611800,11.77961181640625,9.803793907165527,0.2317785769701004,-0.04769355431199074
1659103353115282700,11.78928271484375,9.803797721862793,0.23170337080955505,-0.04745287448167801
1659103353124953900,11.798953857421875,9.803794860839844,0.23180463910102844,-0.04741152003407478
1659103353134625000,11.808625,9.803799629211426,0.23162253201007843,-0.04750688746571541
1659103353144296000,11.8182958984375,9.803799629211426,0.23161056637763977,-0.047559916973114014
1659103353153967000,11.827967041015626,9.803794860839844,0.2317878156900406,-0.047636449337005615
1659103353163638000,11.837637939453124,9.803791999816895,0.2319382280111313,-0.04742250591516495
1659103353173309200,11.84730908203125,9.803790092468262,0.23203787207603455,-0.04728833958506584
1659103353182980400,11.85698046875,9.803791999816895,0.232030987739563,-0.04725344106554985
1659103353192651300,11.8666513671875,9.803789138793945,0.23205408453941345,-0.04738727957010269
1659103353202322400,11.876322509765625,9.803790092468262,0.23202358186244965,-0.047471366822719574
1659103353211993600,11.88599365234375,9.803788185119629,0.2321472018957138,-0.047357670962810516
1659103353221664800,11.895664794921874,9.803786277770996,0.23221153020858765,-0.047117557376623154
1659103353231335700,11.905335693359374,9.803791046142578,0.23204000294208527,-0.04717941954731941
1659103353241006800,11.9150068359375,9.803792953491211,0.23191989958286285,-0.047418251633644104
1659103353250678000,11.924677978515625,9.803793907165527,0.23184432089328766,-0.04757193848490715
1659103353260349000,11.934348876953125,9.803791046142578,0.23190492391586304,-0.04771330580115318
1659103353270020000,11.94402001953125,9.803788185119629,0.23205529153347015,-0.04762718826532364
1659103353279691300,11.953691162109376,9.803788185119629,0.23204144835472107,-0.04766031727194786
1659103353289362200,11.963362060546874,9.803792953491211,0.2319178730249405,-0.047436729073524475
1659103353299033300,11.973033447265625,9.803792953491211,0.2318882793188095,-0.0475345216691494
1659103353308704300,11.982704345703125,9.803791046142578,0.2319793403148651,-0.04738960415124893
1659103353318375400,11.99237548828125,9.803789138793945,0.2321046143770218,-0.04727688059210777
1659103353328046600,12.002046630859375,9.803789138793945,0.23207221925258636,-0.04735475033521652
1659103353337717800,12.0117177734375,9.803791046142578,0.23200005292892456,-0.04732018709182739
1659103353347388700,12.021388671875,9.803787231445312,0.23224285244941711,-0.04721025377511978
1659103353357059800,12.031059814453124,9.803781509399414,0.23239436745643616,-0.04728046432137489
1659103353366731000,12.04073095703125,9.80378246307373,0.232319638133049,-0.04741854593157768
1659103353376402000,12.05040185546875,9.803778648376465,0.2324260175228119,-0.04770191013813019
1659103353386073000,12.060072998046875,9.803784370422363,0.2321843057870865,-0.047763641923666
1659103353395744300,12.069744140625,9.803790092468262,0.23197025060653687,-0.04785372316837311
1659103353405415400,12.07941552734375,9.803789138793945,0.23199889063835144,-0.04776174575090408
1659103353415086300,12.08908642578125,9.803789138793945,0.23197948932647705,-0.04775306582450867
1659103353424757500,12.098757568359375,9.803792953491211,0.23178154230117798,-0.04790635034441948
1659103353434428700,12.1084287109375,9.803791046142578,0.2318670153617859,-0.04800191521644592
1659103353444099600,12.118099609375,9.803790092468262,0.23192283511161804,-0.047949161380529404
1659103353453770800,12.127770751953125,9.803789138793945,0.2319640815258026,-0.04788699373602867
