time,seconds_elapsed,z,y,x
1659103341394006800,0.0680068359375,-0.00022907429956831038,-0.0009926552884280682,0.0006872228696011007
1659103341403677700,0.077677734375,-0.0011453714687377214,-0.0009926552884280682,0.00007635809743078426
1659103341413348900,0.087348876953125,-0.0011453714687377214,-0.0006872228696011007,0.00038179047987796366
1659103341423019800,0.097019775390625,-0.000839939049910754,-0.0009926552884280682,-0.00022907429956831038
1659103341432690700,0.106690673828125,-0.000839939049910754,-0.0016035200096666813,-0.0005345066892914474
1659103341442361600,0.116361572265625,-0.0011453714687377214,-0.0009926552884280682,0.00038179047987796366
1659103341452032500,0.126032470703125,-0.001450803829357028,-0.00038179047987796366,0.0009926552884280682
1659103341461703400,0.135703369140625,-0.0011453714687377214,-0.00038179047987796366,-0.00022907429956831038
1659103341471374300,0.145374267578125,-0.001450803829357028,-0.00007635809743078426,-0.0005345066892914474
1659103341481045500,0.15504541015625,-0.000839939049910754,-0.0012980876490473747,-0.00022907429956831038
1659103341490716400,0.16471630859375,-0.0005345066892914474,-0.0006872228696011007,0.00007635809743078426
1659103341500387300,0.17438720703125,-0.0005345066892914474,-0.00038179047987796366,-0.000839939049910754
1659103341510058200,0.184058349609375,0.00007635809743078426,-0.0006872228696011007,0.00038179047987796366
1659103341519729200,0.193729248046875,-0.000839939049910754,-0.00038179047987796366,0.00038179047987796366
1659103341529400000,0.203400146484375,-0.0005345066892914474,-0.0006872228696011007,0.0009926552884280682
1659103341539071000,0.213071044921875,-0.00022907429956831038,-0.0006872228696011007,-0.0005345066892914474
1659103341548742000,0.222741943359375,-0.0011453714687377214,-0.0012980876490473747,0.0006872228696011007
1659103341558412800,0.232412841796875,-0.0005345066892914474,-0.0006872228696011007,0.00038179047987796366
1659103341568084000,0.242083984375,-0.0011453714687377214,-0.0006872228696011007,0.0009926552884280682
1659103341577755000,0.2517548828125,-0.001450803829357028,-0.0016035200096666813,-0.00022907429956831038
1659103341587425800,0.26142578125,-0.0011453714687377214,-0.0009926552884280682,0.0006872228696011007
1659103341597096700,0.2710966796875,-0.001450803829357028,-0.0009926552884280682,0.00038179047987796366
1659103341606767600,0.280767578125,-0.000839939049910754,-0.00038179047987796366,-0.00022907429956831038
1659103341616438500,0.2904384765625,-0.000839939049910754,-0.0006872228696011007,-0.0005345066892914474
1659103341626109700,0.300109619140625,-0.0005345066892914474,-0.0006872228696011007,-0.00022907429956831038
1659103341635780600,0.309780517578125,-0.0005345066892914474,-0.00038179047987796366,0.00007635809743078426
1659103341645451500,0.319451416015625,-0.0011453714687377214,-0.00038179047987796366,-0.0005345066892914474
1659103341655122400,0.329122314453125,-0.000839939049910754,-0.0006872228696011007,0.00007635809743078426
1659103341664793300,0.33879345703125,-0.00022907429956831038,-0.0009926552884280682,0.0006872228696011007
1659103341674464300,0.34846435546875,-0.000839939049910754,-0.0009926552884280682,-0.00022907429956831038
1659103341684135400,0.358135498046875,-0.0005345066892914474,-0.0009926552884280682,-0.00022907429956831038
1659103341693806300,0.367806396484375,-0.00022907429956831038,-0.0006872228696011007,0.00007635809743078426
1659103341703477200,0.377477294921875,-0.00022907429956831038,-0.00038179047987796366,-0.00022907429956831038
1659103341713148200,0.387148193359375,-0.0011453714687377214,-0.0012980876490473747,-0.000839939049910754
1659103341722819000,0.396819091796875,-0.000839939049910754,-0.0009926552884280682,-0.00022907429956831038
1659103341732490000,0.406489990234375,-0.0011453714687377214,-0.00038179047987796366,0.00007635809743078426
1659103341742161000,0.416160888671875,-0.0011453714687377214,-0.0009926552884280682,0.00038179047987796366
1659103341751832000,0.42583203125,-0.0011453714687377214,-0.00038179047987796366,0.0006872228696011007
1659103341761503000,0.4355029296875,-0.0005345066892914474,-0.0006872228696011007,0.0006872228696011007
1659103341771174000,0.445173828125,-0.000839939049910754,-0.0006872228696011007,0.00007635809743078426
1659103341780844800,0.4548447265625,-0.00022907429956831038,-0.0006872228696011007,-0.00022907429956831038
1659103341790515700,0.464515625,-0.000839939049910754,-0.00038179047987796366,0.0006872228696011007
1659103341800186600,0.4741865234375,-0.0005345066892914474,-0.0009926552884280682,0.0009926552884280682
1659103341809857500,0.483857421875,-0.001450803829357028,-0.0006872228696011007,0.00038179047987796366
1659103341819528400,0.493528564453125,-0.0011453714687377214,-0.0006872228696011007,-0.00022907429956831038
1659103341829199400,0.503199462890625,-0.000839939049910754,-0.0009926552884280682,-0.0005345066892914474
1659103341838870500,0.51287060546875,-0.0011453714687377214,-0.0006872228696011007,-0.0005345066892914474
1659103341848541400,0.52254150390625,-0.0005345066892914474,-0.0016035200096666813,0.00038179047987796366
1659103341858212400,0.53221240234375,-0.000839939049910754,-0.0009926552884280682,0.00007635809743078426
1659103341867883300,0.54188330078125,-0.0005345066892914474,-0.0016035200096666813,0.00038179047987796366
1659103341877554200,0.55155419921875,-0.001450803829357028,-0.00007635809743078426,0.00038179047987796366
1659103341887225300,0.561225341796875,-0.000839939049910754,-0.0012980876490473747,-0.000839939049910754
1659103341896896300,0.570896240234375,-0.0011453714687377214,-0.0006872228696011007,-0.000839939049910754
1659103341906567200,0.580567138671875,-0.0005345066892914474,-0.0006872228696011007,-0.0005345066892914474
1659103341916238000,0.590238037109375,-0.000839939049910754,-0.0009926552884280682,-0.000839939049910754
1659103341925909000,0.599908935546875,-0.0011453714687377214,-0.00007635809743078426,-0.00022907429956831038
1659103341935580000,0.609579833984375,-0.000839939049910754,-0.0009926552884280682,0.00007635809743078426
1659103341945251000,0.6192509765625,-0.00022907429956831038,-0.00038179047987796366,-0.00022907429956831038
1659103341954922000,0.628921875,-0.0011453714687377214,-0.0006872228696011007,0.0006872228696011007
1659103341964593000,0.638593017578125,-0.0005345066892914474,-0.0012980876490473747,-0.00022907429956831038
1659103341974263800,0.648263916015625,-0.000839939049910754,-0.0006872228696011007,-0.0005345066892914474
1659103341983934700,0.657934814453125,-0.0011453714687377214,-0.0006872228696011007,0.0006872228696011007
1659103341993605600,0.667605712890625,-0.0005345066892914474,-0.0009926552884280682,0.00038179047987796366
1659103342003276500,0.677276611328125,-0.0011453714687377214,-0.0009926552884280682,0.0009926552884280682
1659103342012947500,0.686947509765625,-0.0011453714687377214,-0.00007635809743078426,-0.0005345066892914474
1659103342022618600,0.69661865234375,-0.000839939049910754,-0.0016035200096666813,-0.00022907429956831038
1659103342032289500,0.70628955078125,-0.0011453714687377214,0.00022907429956831038,0.0006872228696011007
1659103342041960400,0.71596044921875,-0.001450803829357028,-0.00007635809743078426,0.00007635809743078426
1659103342051631400,0.72563134765625,0.00007635809743078426,-0.0006872228696011007,0.00007635809743078426
1659103342061302300,0.73530224609375,0.00007635809743078426,-0.0006872228696011007,0.00038179047987796366
1659103342070973200,0.74497314453125,0.00007635809743078426,-0.00038179047987796366,0.0006872228696011007
1659103342080644000,0.75464404296875,-0.000839939049910754,-0.00038179047987796366,0.00007635809743078426
1659103342090315000,0.76431494140625,-0.000839939049910754,-0.0009926552884280682,0.00007635809743078426
1659103342099986200,0.773986083984375,-0.0011453714687377214,-0.0006872228696011007,0.00007635809743078426
1659103342109657000,0.783656982421875,-0.000839939049910754,-0.0009926552884280682,-0.00022907429956831038
1659103342119328000,0.793327880859375,-0.0005345066892914474,-0.00038179047987796366,-0.00022907429956831038
1659103342128999000,0.8029990234375,-0.000839939049910754,-0.00038179047987796366,0.00007635809743078426
1659103342138669800,0.812669921875,-0.000839939049910754,-0.0006872228696011007,0.0009926552884280682
1659103342148340700,0.8223408203125,-0.0011453714687377214,-0.0009926552884280682,0.00038179047987796366
1659103342158012000,0.832011962890625,-0.0005345066892914474,-0.00007635809743078426,-0.0005345066892914474
1659103342167682800,0.841682861328125,-0.000839939049910754,-0.0009926552884280682,0.00007635809743078426
1659103342177353700,0.851353759765625,-0.0011453714687377214,-0.00038179047987796366,-0.000839939049910754
1659103342187024600,0.861024658203125,-0.0005345066892914474,-0.00038179047987796366,0.0006872228696011007
1659103342196695600,0.870695556640625,-0.000839939049910754,-0.0006872228696011007,-0.0005345066892914474
1659103342206366500,0.880366455078125,-0.0011453714687377214,-0.0006872228696011007,0.00007635809743078426
1659103342216037600,0.89003759765625,-0.000839939049910754,-0.0006872228696011007,-0.000839939049910754
1659103342225708500,0.89970849609375,-0.00022907429956831038,-0.0009926552884280682,0.00038179047987796366
1659103342235379500,0.90937939453125,-0.000839939049910754,-0.0009926552884280682,0.00007635809743078426
1659103342245050400,0.91905029296875,-0.00022907429956831038,-0.00038179047987796366,-0.000839939049910754
1659103342254721300,0.92872119140625,-0.0017562361899763346,-0.0012980876490473747,0.00038179047987796366
1659103342264392200,0.93839208984375,-0.000839939049910754,-0.0012980876490473747,0.0006872228696011007
1659103342274063400,0.9480634765625,-0.000839939049910754,-0.0006872228696011007,0.0006872228696011007
1659103342283734300,0.957734375,-0.000839939049910754,-0.0006872228696011007,-0.000839939049910754
1659103342293405200,0.9674052734375,-0.000839939049910754,-0.0012980876490473747,-0.000839939049910754
1659103342303076000,0.977076171875,-0.00022907429956831038,-0.00007635809743078426,0.00007635809743078426
1659103342312747000,0.9867470703125,-0.001450803829357028,-0.0006872228696011007,0.0009926552884280682
1659103342322418000,0.99641796875,-0.000839939049910754,-0.0012980876490473747,0.0019089524867013097
1659103342332088800,1.0060888671875,-0.000839939049910754,-0.00038179047987796366,0.00007635809743078426
1659103342341759700,1.015759765625,-0.000839939049910754,-0.0009926552884280682,-0.0005345066892914474
1659103342351431000,1.025430908203125,-0.001450803829357028,-0.0009926552884280682,0.0006872228696011007
1659103342361101800,1.035101806640625,-0.000839939049910754,-0.00038179047987796366,-0.00022907429956831038
1659103342370772700,1.044772705078125,-0.000839939049910754,-0.0012980876490473747,0.00038179047987796366
1659103342380443600,1.054443603515625,-0.0005345066892914474,-0.00038179047987796366,-0.0005345066892914474
1659103342390114600,1.064114501953125,-0.00022907429956831038,-0.0006872228696011007,0.0009926552884280682
1659103342399785500,1.073785400390625,-0.0005345066892914474,-0.0006872228696011007,0.0009926552884280682
1659103342409456400,1.083456298828125,-0.000839939049910754,-0.0006872228696011007,0.0006872228696011007
1659103342419127300,1.093127197265625,-0.000839939049910754,-0.00007635809743078426,0.0009926552884280682
1659103342428798500,1.102798583984375,-0.000839939049910754,-0.00007635809743078426,0.00038179047987796366
1659103342438469400,1.112469482421875,-0.000839939049910754,-0.0006872228696011007,0.00007635809743078426
1659103342448140300,1.122140380859375,-0.0005345066892914474,-0.0006872228696011007,-0.0005345066892914474
1659103342457811200,1.131811279296875,-0.000839939049910754,-0.00038179047987796366,0.00007635809743078426
1659103342467482000,1.141482177734375,-0.001450803829357028,-0.0006872228696011007,-0.000839939049910754
1659103342477153000,1.151153076171875,-0.0005345066892914474,-0.0009926552884280682,-0.0005345066892914474
1659103342486824200,1.16082421875,-0.00022907429956831038,-0.0009926552884280682,0.00038179047987796366
1659103342496495000,1.1704951171875,-0.0011453714687377214,-0.0009926552884280682,0.0006872228696011007
1659103342506166000,1.180166015625,-0.0005345066892914474,-0.0006872228696011007,-0.00022907429956831038
1659103342515837000,1.1898369140625,-0.0005345066892914474,-0.0009926552884280682,0.0009926552884280682
1659103342525507800,1.1995078125,-0.0005345066892914474,-0.0012980876490473747,0.00007635809743078426
1659103342535178800,1.2091787109375,-0.0017562361899763346,-0.0006872228696011007,-0.00022907429956831038
1659103342544850000,1.218849853515625,-0.0017562361899763346,-0.0009926552884280682,-0.00022907429956831038
1659103342554520800,1.228520751953125,-0.0011453714687377214,-0.0009926552884280682,0.0006872228696011007
1659103342564191700,1.238191650390625,-0.0005345066892914474,-0.0009926552884280682,-0.00022907429956831038
1659103342573862700,1.247862548828125,-0.00022907429956831038,-0.0012980876490473747,-0.0005345066892914474
1659103342583533600,1.257533447265625,-0.0011453714687377214,-0.0009926552884280682,0.0019089524867013097
1659103342593204500,1.26720458984375,-0.000839939049910754,-0.00038179047987796366,-0.0005345066892914474
1659103342602875600,1.276875732421875,-0.0005345066892914474,-0.0012980876490473747,0.0009926552884280682
1659103342612546600,1.286546630859375,-0.0011453714687377214,-0.0006872228696011007,0.0006872228696011007
1659103342622217500,1.296217529296875,-0.0011453714687377214,-0.00038179047987796366,-0.00022907429956831038
1659103342631888400,1.305888427734375,-0.0011453714687377214,-0.00007635809743078426,0.00007635809743078426
1659103342641559300,1.315559326171875,-0.001450803829357028,-0.00038179047987796366,-0.000839939049910754
1659103342651230200,1.325230224609375,-0.001450803829357028,-0.0006872228696011007,-0.0005345066892914474
1659103342660901400,1.3349013671875,-0.001450803829357028,-0.0006872228696011007,-0.00022907429956831038
1659103342670572300,1.344572265625,-0.0011453714687377214,-0.0009926552884280682,0.0006872228696011007
1659103342680243200,1.3542431640625,-0.000839939049910754,-0.0012980876490473747,0.0006872228696011007
1659103342689914000,1.3639140625,-0.00022907429956831038,-0.0012980876490473747,0.00038179047987796366
1659103342699585000,1.3735849609375,-0.000839939049910754,-0.0006872228696011007,-0.00022907429956831038
1659103342709256000,1.383255859375,-0.000839939049910754,-0.0006872228696011007,-0.00022907429956831038
1659103342718927000,1.392927001953125,-0.0005345066892914474,-0.0012980876490473747,-0.00022907429956831038
1659103342728598000,1.402597900390625,-0.0011453714687377214,-0.0012980876490473747,-0.0005345066892914474
1659103342738269000,1.41226904296875,-0.000839939049910754,-0.00007635809743078426,-0.0005345066892914474
1659103342747939800,1.42193994140625,-0.0011453714687377214,-0.0006872228696011007,-0.000839939049910754
1659103342757610800,1.43161083984375,-0.00022907429956831038,-0.0012980876490473747,0.00038179047987796366
1659103342767281700,1.44128173828125,-0.000839939049910754,-0.0009926552884280682,0.0006872228696011007
1659103342776952600,1.45095263671875,-0.000839939049910754,-0.00038179047987796366,-0.000839939049910754
1659103342786623700,1.460623779296875,-0.0011453714687377214,-0.0006872228696011007,0.00007635809743078426
1659103342796294700,1.470294677734375,-0.000839939049910754,-0.00038179047987796366,0.0009926552884280682
1659103342805965600,1.479965576171875,-0.0005345066892914474,-0.0016035200096666813,0.00038179047987796366
1659103342815636500,1.489636474609375,-0.0011453714687377214,-0.0016035200096666813,0.00038179047987796366
1659103342825307400,1.499307373046875,-0.0005345066892914474,-0.0006872228696011007,0.00038179047987796366
1659103342834978300,1.508978271484375,-0.0011453714687377214,-0.0012980876490473747,0.00038179047987796366
1659103342844649500,1.5186494140625,-0.0011453714687377214,-0.0006872228696011007,-0.000839939049910754
1659103342854320400,1.5283203125,-0.0011453714687377214,-0.00007635809743078426,0.00038179047987796366
1659103342863991300,1.5379912109375,-0.000839939049910754,-0.0009926552884280682,0.00007635809743078426
1659103342873662200,1.547662109375,-0.001450803829357028,-0.0006872228696011007,0.00007635809743078426
1659103342883333000,1.5573330078125,-0.0011453714687377214,-0.0006872228696011007,-0.0005345066892914474
1659103342893004000,1.567004150390625,-0.000839939049910754,-0.0006872228696011007,-0.0005345066892914474
1659103342902675000,1.576675048828125,-0.000839939049910754,-0.0006872228696011007,0.00038179047987796366
1659103342912346000,1.58634619140625,-0.0005345066892914474,-0.0012980876490473747,-0.00022907429956831038
1659103342922017000,1.59601708984375,-0.000839939049910754,-0.0009926552884280682,-0.0005345066892914474
1659103342931688000,1.60568798828125,-0.0011453714687377214,-0.0006872228696011007,-0.00022907429956831038
1659103342941358800,1.61535888671875,-0.0017562361899763346,-0.0006872228696011007,-0.000839939049910754
1659103342951029800,1.62502978515625,-0.000839939049910754,-0.0009926552884280682,0.00038179047987796366
1659103342960700700,1.63470068359375,-0.000839939049910754,-0.0009926552884280682,-0.00022907429956831038
1659103342970371800,1.644371826171875,-0.000839939049910754,-0.0009926552884280682,-0.00022907429956831038
1659103342980042800,1.654042724609375,-0.000839939049910754,-0.0009926552884280682,-0.000839939049910754
1659103342989713700,1.663713623046875,-0.000839939049910754,-0.0012980876490473747,-0.0005345066892914474
1659103342999384600,1.673384521484375,-0.001450803829357028,-0.00007635809743078426,-0.0011453714687377214
1659103343009055500,1.683055419921875,-0.00022907429956831038,-0.00038179047987796366,0.00007635809743078426
1659103343018726400,1.692726318359375,-0.0005345066892914474,-0.00038179047987796366,-0.00022907429956831038
1659103343028397600,1.7023974609375,-0.000839939049910754,-0.0012980876490473747,0.0006872228696011007
1659103343038068500,1.712068359375,-0.0005345066892914474,-0.0006872228696011007,0.00038179047987796366
1659103343047739400,1.721739501953125,-0.0017562361899763346,-0.0009926552884280682,-0.0005345066892914474
1659103343057410300,1.731410400390625,-0.0011453714687377214,-0.0009926552884280682,-0.000839939049910754
1659103343067081200,1.741081298828125,-0.0005345066892914474,-0.0006872228696011007,-0.00022907429956831038
1659103343076752100,1.750752197265625,-0.0005345066892914474,-0.0006872228696011007,-0.00022907429956831038
1659103343086423300,1.76042333984375,-0.001450803829357028,-0.0006872228696011007,-0.00022907429956831038
1659103343096094200,1.77009423828125,-0.001450803829357028,-0.0009926552884280682,0.00038179047987796366
1659103343105765000,1.77976513671875,-0.0005345066892914474,-0.0006872228696011007,-0.0005345066892914474
1659103343115436000,1.78943603515625,-0.0005345066892914474,-0.0006872228696011007,0.00007635809743078426
1659103343125107000,1.79910693359375,-0.0011453714687377214,-0.0006872228696011007,-0.00022907429956831038
1659103343134777900,1.80877783203125,-0.0005345066892914474,-0.0006872228696011007,-0.00022907429956831038
1659103343144449000,1.818448974609375,-0.00022907429956831038,-0.0006872228696011007,-0.0005345066892914474
1659103343154120000,1.828119873046875,-0.0005345066892914474,-0.0006872228696011007,0.00038179047987796366
1659103343163790800,1.837790771484375,-0.001450803829357028,-0.0009926552884280682,0.0006872228696011007
1659103343173461800,1.847461669921875,-0.000839939049910754,-0.0006872228696011007,0.00007635809743078426
1659103343183132700,1.857132568359375,-0.0005345066892914474,-0.00038179047987796366,0.00038179047987796366
1659103343192803800,1.866803955078125,-0.000839939049910754,-0.00038179047987796366,0.00007635809743078426
1659103343202474800,1.876474853515625,-0.0005345066892914474,-0.0012980876490473747,0.00038179047987796366
1659103343212145700,1.886145751953125,-0.0005345066892914474,-0.0006872228696011007,-0.00022907429956831038
1659103343221816600,1.895816650390625,-0.001450803829357028,-0.0006872228696011007,-0.0005345066892914474
1659103343231487500,1.905487548828125,-0.0005345066892914474,-0.0006872228696011007,0.0012980876490473747
1659103343241158400,1.915158447265625,-0.000839939049910754,-0.0012980876490473747,0.00007635809743078426
1659103343250829600,1.92482958984375,-0.000839939049910754,-0.00038179047987796366,-0.000839939049910754
1659103343260500500,1.93450048828125,-0.0011453714687377214,-0.0009926552884280682,-0.00022907429956831038
1659103343270171400,1.94417138671875,-0.0017562361899763346,-0.00038179047987796366,-0.00022907429956831038
1659103343279842300,1.95384228515625,-0.0011453714687377214,-0.00007635809743078426,-0.0005345066892914474
1659103343289513200,1.96351318359375,-0.000839939049910754,-0.0006872228696011007,-0.0005345066892914474
1659103343299184000,1.97318408203125,-0.0011453714687377214,-0.0009926552884280682,-0.000839939049910754
1659103343308855300,1.982855224609375,-0.0005345066892914474,-0.00038179047987796366,0.0006872228696011007
1659103343318526200,1.992526123046875,-0.0011453714687377214,-0.00038179047987796366,0.0006872228696011007
1659103343328197000,2.002197021484375,-0.0011453714687377214,-0.00038179047987796366,-0.001450803829357028
1659103343337868000,2.011867919921875,-0.0005345066892914474,-0.0009926552884280682,-0.0005345066892914474
1659103343347539000,2.0215390625,-0.00022907429956831038,-0.00038179047987796366,0.00007635809743078426
1659103343357210000,2.031210205078125,-0.0005345066892914474,-0.00038179047987796366,0.00038179047987796366
1659103343366881000,2.040881103515625,-0.000839939049910754,-0.0009926552884280682,0.00038179047987796366
1659103343376552000,2.050552001953125,-0.000839939049910754,-0.0012980876490473747,-0.00022907429956831038
1659103343386222800,2.060222900390625,-0.0011453714687377214,-0.00038179047987796366,0.00038179047987796366
1659103343395893800,2.069893798828125,-0.000839939049910754,-0.0006872228696011007,0.00038179047987796366
1659103343405565000,2.07956494140625,-0.0011453714687377214,-0.0012980876490473747,-0.000839939049910754
1659103343415235800,2.08923583984375,-0.000839939049910754,-0.0009926552884280682,0.00038179047987796366
1659103343424906800,2.09890673828125,-0.0005345066892914474,-0.00007635809743078426,0.00038179047987796366
1659103343434577700,2.10857763671875,-0.000839939049910754,-0.0006872228696011007,0.0006872228696011007
1659103343444248600,2.11824853515625,-0.001450803829357028,-0.0016035200096666813,-0.0005345066892914474
1659103343453919500,2.12791943359375,-0.000839939049910754,-0.00007635809743078426,-0.00022907429956831038
1659103343463590700,2.137590576171875,-0.0005345066892914474,-0.0009926552884280682,0.0006872228696011007
1659103343473261600,2.147261474609375,-0.0005345066892914474,-0.0009926552884280682,0.00038179047987796366
1659103343482932500,2.156932373046875,-0.0011453714687377214,-0.0006872228696011007,0.00038179047987796366
1659103343492603400,2.166603271484375,-0.0011453714687377214,-0.0006872228696011007,-0.0005345066892914474
1659103343502274300,2.1762744140625,-0.0011453714687377214,-0.00007635809743078426,0.00038179047987796366
1659103343511945200,2.1859453125,-0.0011453714687377214,-0.0006872228696011007,-0.00022907429956831038
1659103343521616400,2.195616455078125,-0.000839939049910754,-0.0006872228696011007,0.0009926552884280682
1659103343531287300,2.205287353515625,-0.000839939049910754,-0.0009926552884280682,-0.00022907429956831038
1659103343540958200,2.214958251953125,-0.000839939049910754,-0.0009926552884280682,-0.00022907429956831038
1659103343550629000,2.224629150390625,-0.0005345066892914474,-0.0009926552884280682,0.00007635809743078426
1659103343560300000,2.234300048828125,-0.000839939049910754,-0.00007635809743078426,0.00007635809743078426
1659103343569971000,2.243970947265625,-0.0011453714687377214,-0.0006872228696011007,-0.0005345066892914474
1659103343579642000,2.25364208984375,-0.0017562361899763346,-0.0009926552884280682,0.00007635809743078426
1659103343589313000,2.26331298828125,-0.0005345066892914474,-0.0006872228696011007,0.0009926552884280682
1659103343598984000,2.27298388671875,-0.0005345066892914474,-0.00038179047987796366,0.00007635809743078426
1659103343608654800,2.28265478515625,-0.000839939049910754,-0.0006872228696011007,0.00038179047987796366
1659103343618325800,2.29232568359375,-0.0011453714687377214,-0.00038179047987796366,-0.0005345066892914474
1659103343627997000,2.301996826171875,-0.0005345066892914474,-0.00038179047987796366,-0.00022907429956831038
1659103343637667800,2.311667724609375,-0.0005345066892914474,-0.0006872228696011007,-0.001450803829357028
1659103343647338800,2.3213388671875,-0.0011453714687377214,-0.0016035200096666813,0.00038179047987796366
1659103343657009700,2.331009765625,-0.000839939049910754,-0.0006872228696011007,0.00007635809743078426
1659103343666680600,2.3406806640625,-0.000839939049910754,-0.00038179047987796366,-0.00022907429956831038
1659103343676351700,2.350351806640625,-0.0011453714687377214,-0.00038179047987796366,-0.00022907429956831038
1659103343686022700,2.360022705078125,-0.001450803829357028,-0.00007635809743078426,0.0006872228696011007
1659103343695693600,2.369693603515625,-0.000839939049910754,-0.0006872228696011007,0.00038179047987796366
1659103343705364500,2.379364501953125,-0.000839939049910754,-0.0006872228696011007,-0.0005345066892914474
1659103343715035600,2.38903564453125,-0.000839939049910754,-0.00007635809743078426,-0.00022907429956831038
1659103343724706600,2.39870654296875,-0.0011453714687377214,-0.00007635809743078426,0.00007635809743078426
1659103343734377500,2.40837744140625,-0.0011453714687377214,-0.00007635809743078426,0.00007635809743078426
1659103343744048400,2.41804833984375,-0.0011453714687377214,-0.00038179047987796366,0.0006872228696011007
1659103343753719300,2.42771923828125,-0.0005345066892914474,-0.0012980876490473747,-0.0011453714687377214
1659103343763390200,2.43739013671875,-0.0005345066892914474,-0.0009926552884280682,0.00038179047987796366
1659103343773061400,2.447061279296875,-0.0011453714687377214,0.00022907429956831038,0.00038179047987796366
1659103343782732300,2.456732177734375,-0.0011453714687377214,-0.00038179047987796366,0.00038179047987796366
1659103343792403200,2.4664033203125,-0.000839939049910754,-0.00038179047987796366,0.00007635809743078426
1659103343802074000,2.47607421875,-0.0005345066892914474,-0.0006872228696011007,0.0006872228696011007
1659103343811745000,2.4857451171875,-0.0017562361899763346,-0.00038179047987796366,0.00007635809743078426
1659103343821416000,2.495416015625,-0.0011453714687377214,-0.0012980876490473747,0.00038179047987796366
1659103343831087000,2.505087158203125,-0.002061668550595641,-0.0012980876490473747,-0.0005345066892914474
1659103343840758000,2.514758056640625,-0.0011453714687377214,-0.0012980876490473747,0.00038179047987796366
1659103343850429000,2.524428955078125,-0.0011453714687377214,-0.0006872228696011007,-0.0005345066892914474
1659103343860099800,2.534099853515625,-0.00022907429956831038,-0.00007635809743078426,-0.00022907429956831038
1659103343869770800,2.543770751953125,-0.000839939049910754,-0.0006872228696011007,0.0009926552884280682
1659103343879442000,2.55344189453125,-0.000839939049910754,-0.00038179047987796366,-0.00022907429956831038
1659103343889112800,2.56311279296875,-0.001450803829357028,-0.0006872228696011007,0.0006872228696011007
1659103343898783700,2.57278369140625,-0.0011453714687377214,-0.0009926552884280682,0.00007635809743078426
1659103343908454700,2.58245458984375,-0.0005345066892914474,-0.00038179047987796366,0.00007635809743078426
1659103343918125800,2.592125732421875,-0.0005345066892914474,-0.0006872228696011007,0.0009926552884280682
1659103343927796700,2.601796630859375,-0.0005345066892914474,-0.0006872228696011007,0.00038179047987796366
1659103343937467600,2.611467529296875,-0.0011453714687377214,0.00022907429956831038,0.00007635809743078426
1659103343947138600,2.621138671875,-0.00022907429956831038,-0.00007635809743078426,0.0016035200096666813
1659103343956809500,2.6308095703125,-0.00022907429956831038,-0.0009926552884280682,-0.00022907429956831038
1659103343966480600,2.640480712890625,-0.00022907429956831038,-0.0012980876490473747,0.00007635809743078426
1659103343976151600,2.650151611328125,-0.000839939049910754,-0.0012980876490473747,0.00038179047987796366
1659103343985822500,2.659822509765625,-0.00022907429956831038,-0.0006872228696011007,-0.000839939049910754
1659103343995493400,2.669493408203125,-0.0005345066892914474,-0.0012980876490473747,-0.00022907429956831038
1659103344005164300,2.679164306640625,-0.0011453714687377214,-0.00038179047987796366,-0.00022907429956831038
1659103344014835200,2.688835205078125,-0.000839939049910754,-0.0016035200096666813,0.00038179047987796366
1659103344024506400,2.69850634765625,-0.0005345066892914474,-0.0012980876490473747,0.00007635809743078426
1659103344034177300,2.70817724609375,-0.000839939049910754,-0.0009926552884280682,0.0006872228696011007
1659103344043848200,2.71784814453125,-0.0011453714687377214,-0.0019089524867013097,-0.0005345066892914474
1659103344053519000,2.72751904296875,-0.0005345066892914474,-0.0012980876490473747,0.00038179047987796366
1659103344063190300,2.737190185546875,-0.0005345066892914474,-0.00038179047987796366,0.00007635809743078426
1659103344072861200,2.746861083984375,-0.00022907429956831038,-0.0006872228696011007,0.00038179047987796366
1659103344082532000,2.756531982421875,-0.000839939049910754,-0.0009926552884280682,0.00038179047987796366
1659103344092203000,2.766203125,-0.0005345066892914474,-0.0009926552884280682,0.0006872228696011007
1659103344101874200,2.775874267578125,-0.00022907429956831038,-0.0006872228696011007,0.0012980876490473747
1659103344111545000,2.785545166015625,-0.00022907429956831038,-0.0009926552884280682,0.0006872228696011007
1659103344121216000,2.795216064453125,-0.000839939049910754,-0.0006872228696011007,0.00038179047987796366
1659103344130887000,2.804886962890625,-0.000839939049910754,-0.00038179047987796366,0.0006872228696011007
1659103344140557800,2.814557861328125,-0.001450803829357028,-0.0009926552884280682,-0.0011453714687377214
1659103344150228700,2.824228759765625,-0.000839939049910754,-0.0006872228696011007,0.0006872228696011007
1659103344159900000,2.83389990234375,0.00007635809743078426,-0.0006872228696011007,0.0006872228696011007
1659103344169570800,2.84357080078125,-0.0005345066892914474,-0.0009926552884280682,0.0009926552884280682
1659103344179241700,2.85324169921875,-0.00022907429956831038,-0.0009926552884280682,0.00007635809743078426
1659103344188912600,2.86291259765625,-0.001450803829357028,-0.00007635809743078426,-0.0005345066892914474
1659103344198583800,2.872583740234375,-0.0017562361899763346,-0.0009926552884280682,0.0012980876490473747
1659103344208254700,2.882254638671875,-0.00022907429956831038,-0.00038179047987796366,0.0006872228696011007
1659103344217925600,2.891925537109375,-0.000839939049910754,-0.00038179047987796366,0.00038179047987796366
1659103344227596800,2.9015966796875,-0.0011453714687377214,-0.0016035200096666813,0.00038179047987796366
1659103344237267700,2.911267822265625,-0.0005345066892914474,-0.0006872228696011007,-0.00022907429956831038
1659103344246938600,2.920938720703125,-0.000839939049910754,-0.0009926552884280682,-0.00022907429956831038
1659103344256609500,2.930609619140625,-0.0005345066892914474,-0.0009926552884280682,0.0012980876490473747
1659103344266280400,2.940280517578125,-0.0005345066892914474,-0.0012980876490473747,0.0009926552884280682
1659103344275951400,2.949951416015625,-0.00022907429956831038,-0.0009926552884280682,-0.00022907429956831038
1659103344285622500,2.95962255859375,-0.0005345066892914474,-0.0012980876490473747,0.00007635809743078426
1659103344295293400,2.96929345703125,-0.001450803829357028,-0.0012980876490473747,-0.000839939049910754
1659103344304964400,2.97896435546875,-0.0011453714687377214,-0.00038179047987796366,-0.0005345066892914474
1659103344314635300,2.98863525390625,-0.0011453714687377214,-0.00038179047987796366,-0.0005345066892914474
1659103344324306400,2.998306396484375,-0.001450803829357028,-0.0016035200096666813,-0.00022907429956831038
1659103344333977300,3.007977294921875,-0.00022907429956831038,-0.0006872228696011007,0.0009926552884280682
1659103344343648300,3.017648193359375,-0.0011453714687377214,-0.0012980876490473747,-0.000839939049910754
1659103344353319200,3.027319091796875,-0.000839939049910754,-0.0009926552884280682,-0.00022907429956831038
1659103344362990300,3.036990234375,-0.0005345066892914474,-0.0006872228696011007,0.0012980876490473747
1659103344372661200,3.0466611328125,-0.00022907429956831038,-0.0006872228696011007,-0.00022907429956831038
1659103344382332200,3.056332275390625,-0.0011453714687377214,-0.0006872228696011007,0.00038179047987796366
1659103344392003000,3.066003173828125,-0.001450803829357028,-0.00007635809743078426,-0.00022907429956831038
1659103344401674000,3.075674072265625,-0.00022907429956831038,-0.0012980876490473747,-0.00022907429956831038
1659103344411345200,3.08534521484375,-0.0005345066892914474,-0.0006872228696011007,0.00038179047987796366
1659103344421016000,3.09501611328125,-0.000839939049910754,-0.0006872228696011007,0.00038179047987796366
1659103344430687000,3.10468701171875,-0.000839939049910754,-0.0009926552884280682,0.00038179047987796366
1659103344440358100,3.114358154296875,-0.0011453714687377214,-0.0012980876490473747,0.0006872228696011007
1659103344450029000,3.124029052734375,-0.0005345066892914474,-0.0009926552884280682,-0.00022907429956831038
1659103344459700000,3.133699951171875,-0.0011453714687377214,-0.0006872228696011007,0.0009926552884280682
1659103344469371000,3.143370849609375,-0.000839939049910754,-0.00038179047987796366,0.00007635809743078426
1659103344479041800,3.153041748046875,-0.000839939049910754,-0.0009926552884280682,-0.00022907429956831038
1659103344488712700,3.162712646484375,-0.000839939049910754,-0.00007635809743078426,0.00038179047987796366
1659103344498384000,3.1723837890625,-0.0005345066892914474,-0.0009926552884280682,0.00007635809743078426
1659103344508054800,3.1820546875,-0.000839939049910754,-0.0006872228696011007,0.00038179047987796366
1659103344517725700,3.1917255859375,-0.001450803829357028,-0.00038179047987796366,-0.0005345066892914474
1659103344527396900,3.20139697265625,-0.0005345066892914474,-0.0006872228696011007,0.0006872228696011007
1659103344537067800,3.21106787109375,-0.000839939049910754,-0.0016035200096666813,0.0006872228696011007
1659103344546738700,3.22073876953125,-0.0011453714687377214,-0.0012980876490473747,0.0006872228696011007
1659103344556409600,3.23040966796875,-0.001450803829357028,-0.0006872228696011007,0.00007635809743078426
1659103344566080500,3.24008056640625,-0.000839939049910754,-0.00007635809743078426,-0.0011453714687377214
1659103344575751700,3.249751708984375,-0.0011453714687377214,-0.00007635809743078426,-0.000839939049910754
1659103344585422600,3.259422607421875,-0.0011453714687377214,-0.0009926552884280682,0.00007635809743078426
1659103344595093500,3.269093505859375,-0.0011453714687377214,-0.0009926552884280682,0.00038179047987796366
1659103344604764400,3.278764404296875,-0.0011453714687377214,-0.0006872228696011007,-0.00022907429956831038
1659103344614435600,3.288435546875,-0.000839939049910754,-0.0006872228696011007,0.00038179047987796366
1659103344624106500,3.2981064453125,-0.0017562361899763346,-0.0006872228696011007,0.00007635809743078426
1659103344633777400,3.30777734375,-0.0005345066892914474,-0.00038179047987796366,0.00007635809743078426
1659103344643448300,3.3174482421875,-0.0011453714687377214,-0.0006872228696011007,0.00007635809743078426
1659103344653119500,3.327119384765625,-0.0011453714687377214,-0.0006872228696011007,-0.00022907429956831038
1659103344662790400,3.336790283203125,-0.000839939049910754,-0.00038179047987796366,-0.00022907429956831038
1659103344672461300,3.34646142578125,-0.000839939049910754,-0.00038179047987796366,-0.000839939049910754
1659103344682132200,3.35613232421875,-0.001450803829357028,-0.00038179047987796366,-0.000839939049910754
1659103344691803400,3.365803466796875,-0.001450803829357028,-0.0006872228696011007,-0.0005345066892914474
1659103344701474300,3.375474365234375,-0.0011453714687377214,-0.00007635809743078426,-0.0005345066892914474
1659103344711145200,3.385145263671875,-0.0011453714687377214,-0.0006872228696011007,0.0006872228696011007
1659103344720816400,3.39481640625,-0.0011453714687377214,-0.0006872228696011007,-0.0005345066892914474
1659103344730487300,3.4044873046875,-0.0011453714687377214,-0.0006872228696011007,0.00007635809743078426
1659103344740158200,3.414158203125,-0.0005345066892914474,-0.0009926552884280682,0.00038179047987796366
1659103344749829000,3.4238291015625,-0.0005345066892914474,-0.0012980876490473747,-0.00022907429956831038
1659103344759500000,3.4335,-0.0005345066892914474,-0.0006872228696011007,0.00038179047987796366
1659103344769171200,3.443171142578125,-0.00022907429956831038,-0.00038179047987796366,-0.00022907429956831038
1659103344778842000,3.452842041015625,-0.000839939049910754,-0.00038179047987796366,0.00038179047987796366
1659103344788513000,3.462512939453125,-0.0011453714687377214,-0.00038179047987796366,0.00007635809743078426
1659103344798184200,3.47218408203125,-0.001450803829357028,-0.00038179047987796366,0.0012980876490473747
1659103344807855000,3.481855224609375,-0.001450803829357028,-0.00038179047987796366,0.0006872228696011007
1659103344817526000,3.491526123046875,-0.001450803829357028,-0.0006872228696011007,0.00038179047987796366
1659103344827197000,3.501197021484375,0.00007635809743078426,-0.0006872228696011007,0.00038179047987796366
1659103344836867800,3.510867919921875,-0.000839939049910754,-0.0009926552884280682,-0.0005345066892914474
1659103344846539000,3.5205390625,-0.0005345066892914474,-0.00038179047987796366,0.0006872228696011007
1659103344856210000,3.5302099609375,-0.000839939049910754,-0.0006872228696011007,0.0006872228696011007
1659103344865880800,3.539880859375,-0.00022907429956831038,-0.0009926552884280682,0.00007635809743078426
1659103344875552000,3.549552001953125,0.00007635809743078426,-0.0009926552884280682,0.00038179047987796366
1659103344885223000,3.559222900390625,-0.000839939049910754,-0.0006872228696011007,-0.000839939049910754
1659103344894893800,3.568893798828125,-0.00022907429956831038,-0.00038179047987796366,0.00038179047987796366
1659103344904564700,3.578564697265625,-0.0005345066892914474,-0.0012980876490473747,0.00007635809743078426
1659103344914236000,3.58823583984375,-0.0005345066892914474,-0.0009926552884280682,-0.00022907429956831038
1659103344923906800,3.59790673828125,-0.0011453714687377214,-0.0016035200096666813,-0.000839939049910754
1659103344933577700,3.60757763671875,-0.0005345066892914474,-0.0012980876490473747,0.00007635809743078426
1659103344943248600,3.61724853515625,-0.0011453714687377214,-0.0009926552884280682,-0.000839939049910754
1659103344952919800,3.626919921875,-0.0011453714687377214,-0.0009926552884280682,0.00038179047987796366
1659103344962590700,3.6365908203125,-0.0011453714687377214,-0.0009926552884280682,0.00007635809743078426
1659103344972261600,3.64626171875,-0.0005345066892914474,-0.0006872228696011007,0.00038179047987796366
1659103344981932800,3.655932861328125,-0.0011453714687377214,-0.0006872228696011007,0.0006872228696011007
1659103344991603700,3.665603759765625,-0.00022907429956831038,-0.0009926552884280682,0.00038179047987796366
1659103345001274600,3.675274658203125,-0.00022907429956831038,-0.0009926552884280682,-0.00022907429956831038
1659103345010945500,3.684945556640625,-0.000839939049910754,-0.00007635809743078426,0.0009926552884280682
1659103345020616400,3.694616455078125,-0.0005345066892914474,-0.0006872228696011007,0.0006872228696011007
1659103345030287600,3.70428759765625,-0.0005345066892914474,-0.00038179047987796366,0.00038179047987796366
1659103345039958500,3.71395849609375,-0.001450803829357028,-0.0006872228696011007,0.00007635809743078426
1659103345049629700,3.723629638671875,-0.000839939049910754,-0.0006872228696011007,0.0006872228696011007
1659103345059300600,3.733300537109375,-0.0011453714687377214,-0.0009926552884280682,-0.00022907429956831038
1659103345068971500,3.742971435546875,-0.0005345066892914474,-0.0009926552884280682,-0.000839939049910754
1659103345078642400,3.752642333984375,-0.0005345066892914474,-0.00007635809743078426,0.0006872228696011007
1659103345088313300,3.762313232421875,-0.000839939049910754,-0.0006872228696011007,0.00007635809743078426
1659103345097984500,3.771984619140625,-0.000839939049910754,-0.00038179047987796366,-0.00022907429956831038
1659103345107655400,3.781655517578125,-0.0005345066892914474,-0.00038179047987796366,0.00007635809743078426
1659103345117326600,3.79132666015625,-0.001450803829357028,-0.00038179047987796366,0.0009926552884280682
1659103345126997500,3.80099755859375,-0.0011453714687377214,-0.0009926552884280682,0.00038179047987796366
1659103345136668400,3.81066845703125,-0.000839939049910754,-0.0006872228696011007,0.00038179047987796366
1659103345146339300,3.82033935546875,-0.0005345066892914474,-0.0012980876490473747,0.00038179047987796366
1659103345156010200,3.83001025390625,-0.00022907429956831038,-0.0012980876490473747,0.00007635809743078426
1659103345165681400,3.839681396484375,-0.000839939049910754,-0.0009926552884280682,0.0009926552884280682
1659103345175352300,3.849352294921875,-0.000839939049910754,-0.0009926552884280682,0.0006872228696011007
1659103345185023200,3.859023193359375,-0.00022907429956831038,-0.00038179047987796366,0.00007635809743078426
1659103345194694400,3.8686943359375,-0.0011453714687377214,0.00022907429956831038,0.00038179047987796366
1659103345204365300,3.878365234375,-0.0011453714687377214,-0.0006872228696011007,-0.00022907429956831038
1659103345214036200,3.8880361328125,-0.001450803829357028,-0.0009926552884280682,-0.00022907429956831038
1659103345223707400,3.897707275390625,-0.0011453714687377214,-0.0006872228696011007,-0.00022907429956831038
1659103345233378300,3.90737841796875,-0.000839939049910754,-0.00038179047987796366,0.0009926552884280682
1659103345243049200,3.91704931640625,0.00007635809743078426,-0.0006872228696011007,-0.000839939049910754
1659103345252720000,3.92672021484375,-0.0005345066892914474,-0.0006872228696011007,0.00007635809743078426
1659103345262391300,3.936391357421875,-0.0005345066892914474,-0.0006872228696011007,0.00038179047987796366
1659103345272062200,3.946062255859375,-0.0011453714687377214,0.00022907429956831038,-0.0005345066892914474
1659103345281733000,3.955733154296875,-0.0005345066892914474,-0.00038179047987796366,0.00007635809743078426
1659103345291404300,3.965404296875,-0.001450803829357028,-0.0012980876490473747,-0.0005345066892914474
1659103345301075200,3.9750751953125,-0.0005345066892914474,-0.0012980876490473747,0.00007635809743078426
1659103345310746000,3.98474609375,-0.000839939049910754,-0.0009926552884280682,-0.00022907429956831038
1659103345320417000,3.9944169921875,-0.0011453714687377214,-0.0006872228696011007,-0.001450803829357028
1659103345330088200,4.004088134765625,-0.000839939049910754,-0.0009926552884280682,-0.000839939049910754
1659103345339759000,4.013759033203125,-0.0005345066892914474,-0.00038179047987796366,0.00038179047987796366
1659103345349430000,4.023429931640625,0.00007635809743078426,-0.0009926552884280682,0.00007635809743078426
1659103345359101000,4.033100830078125,-0.000839939049910754,-0.00007635809743078426,-0.0005345066892914474
1659103345368772000,4.042772216796875,-0.000839939049910754,-0.0006872228696011007,-0.00022907429956831038
1659103345378443000,4.052443115234375,-0.001450803829357028,-0.0009926552884280682,-0.0017562361899763346
1659103345388114200,4.0621142578125,0.00038179047987796366,-0.00038179047987796366,0.00007635809743078426
1659103345397785000,4.07178515625,-0.0005345066892914474,-0.00038179047987796366,-0.0011453714687377214
1659103345407456000,4.0814560546875,-0.0005345066892914474,-0.0012980876490473747,0.00007635809743078426
1659103345417127000,4.091126953125,-0.0005345066892914474,-0.0009926552884280682,0.0009926552884280682
1659103345426798000,4.100798095703125,-0.000839939049910754,-0.0009926552884280682,-0.0005345066892914474
1659103345436469000,4.110468994140625,-0.000839939049910754,-0.0006872228696011007,0.00007635809743078426
1659103345446140000,4.120139892578125,0.00007635809743078426,-0.0009926552884280682,0.00038179047987796366
1659103345455811000,4.12981103515625,-0.0011453714687377214,-0.0009926552884280682,0.0006872228696011007
1659103345465482000,4.13948193359375,-0.000839939049910754,-0.00038179047987796366,-0.0005345066892914474
1659103345475153000,4.14915283203125,-0.000839939049910754,-0.00038179047987796366,-0.00022907429956831038
1659103345484824000,4.158823974609375,-0.0005345066892914474,-0.0009926552884280682,-0.000839939049910754
1659103345494495000,4.168494873046875,-0.0005345066892914474,-0.0009926552884280682,-0.0005345066892914474
1659103345504166000,4.178165771484375,-0.000839939049910754,-0.0009926552884280682,0.00038179047987796366
1659103345513836800,4.1878369140625,-0.0005345066892914474,-0.00038179047987796366,-0.0005345066892914474
1659103345523508000,4.197508056640625,-0.0005345066892914474,-0.0012980876490473747,-0.000839939049910754
1659103345533179000,4.207178955078125,-0.0005345066892914474,-0.0006872228696011007,-0.000839939049910754
1659103345542849800,4.216849853515625,-0.00022907429956831038,-0.0009926552884280682,0.0006872228696011007
1659103345552521000,4.22652099609375,-0.0011453714687377214,-0.00038179047987796366,0.00007635809743078426
1659103345562192000,4.23619189453125,-0.0005345066892914474,-0.0009926552884280682,0.00038179047987796366
1659103345571863000,4.245863037109375,-0.000839939049910754,-0.0012980876490473747,0.00038179047987796366
1659103345581534000,4.255533935546875,-0.002061668550595641,-0.00038179047987796366,-0.0005345066892914474
1659103345591204900,4.265204833984375,-0.0011453714687377214,-0.00038179047987796366,0.0006872228696011007
1659103345600875800,4.274875732421875,-0.0005345066892914474,-0.0009926552884280682,0.0009926552884280682
1659103345610547000,4.284546875,-0.0011453714687377214,-0.0009926552884280682,0.0006872228696011007
1659103345620217900,4.2942177734375,-0.0005345066892914474,-0.0006872228696011007,-0.00022907429956831038
1659103345629888800,4.303888671875,-0.0005345066892914474,-0.00038179047987796366,-0.0011453714687377214
1659103345639559700,4.3135595703125,-0.0005345066892914474,-0.0006872228696011007,0.00038179047987796366
1659103345649230800,4.32323095703125,-0.0005345066892914474,-0.0009926552884280682,-0.0005345066892914474
1659103345658901800,4.33290185546875,-0.0011453714687377214,-0.0009926552884280682,0.0006872228696011007
1659103345668573000,4.342572998046875,0.00038179047987796366,-0.0012980876490473747,0.0009926552884280682
1659103345678243800,4.352243896484375,-0.0011453714687377214,-0.0006872228696011007,0.00038179047987796366
1659103345687914800,4.361914794921875,-0.0005345066892914474,-0.00038179047987796366,-0.000839939049910754
1659103345697586000,4.3715859375,-0.00022907429956831038,-0.0012980876490473747,0.0009926552884280682
1659103345707256800,4.3812568359375,-0.002061668550595641,-0.0009926552884280682,-0.00022907429956831038
1659103345716927700,4.390927734375,-0.0011453714687377214,-0.0006872228696011007,-0.0005345066892914474
1659103345726598700,4.4005986328125,-0.0005345066892914474,-0.0009926552884280682,-0.00022907429956831038
1659103345736269800,4.410269775390625,-0.00022907429956831038,-0.0009926552884280682,-0.00022907429956831038
1659103345745940700,4.419940673828125,-0.00022907429956831038,-0.0006872228696011007,-0.0005345066892914474
1659103345755612000,4.42961181640625,-0.000839939049910754,-0.0006872228696011007,0.0006872228696011007
1659103345765282800,4.43928271484375,-0.000839939049910754,-0.0006872228696011007,-0.00022907429956831038
1659103345774953700,4.44895361328125,-0.0011453714687377214,-0.0006872228696011007,-0.0005345066892914474
1659103345784625000,4.458625,0.00007635809743078426,-0.0006872228696011007,0.00007635809743078426
1659103345794295800,4.4682958984375,-0.0005345066892914474,-0.0009926552884280682,0.00038179047987796366
1659103345803966700,4.477966796875,-0.0011453714687377214,-0.0009926552884280682,0.0009926552884280682
1659103345813637600,4.4876376953125,-0.0005345066892914474,-0.00038179047987796366,-0.00022907429956831038
1659103345823308800,4.497308837890625,-0.0005345066892914474,-0.0006872228696011007,0.00007635809743078426
1659103345832979700,4.506979736328125,-0.00022907429956831038,-0.0009926552884280682,-0.00022907429956831038
1659103345842650600,4.516650634765625,-0.000839939049910754,-0.0006872228696011007,0.00038179047987796366
1659103345852321800,4.52632177734375,-0.00022907429956831038,-0.00038179047987796366,-0.00022907429956831038
1659103345861992700,4.53599267578125,-0.000839939049910754,-0.00038179047987796366,0.00007635809743078426
1659103345871663900,4.545663818359375,-0.000839939049910754,-0.0016035200096666813,0.00038179047987796366
1659103345881334800,4.555334716796875,-0.000839939049910754,-0.00007635809743078426,-0.0005345066892914474
1659103345891005700,4.565005615234375,-0.00022907429956831038,-0.0009926552884280682,0.00007635809743078426
1659103345900676900,4.5746767578125,-0.0005345066892914474,0.00022907429956831038,0.0006872228696011007
1659103345910347800,4.58434765625,0.00007635809743078426,0.00022907429956831038,0.0006872228696011007
1659103345920018700,4.594018798828125,-0.00022907429956831038,-0.00038179047987796366,0.00007635809743078426
1659103345929689600,4.603689697265625,0.00007635809743078426,-0.0006872228696011007,-0.00022907429956831038
1659103345939360800,4.61336083984375,-0.000839939049910754,-0.0012980876490473747,0.00007635809743078426
1659103345949031700,4.62303173828125,-0.0011453714687377214,-0.00038179047987796366,-0.00022907429956831038
1659103345958702600,4.63270263671875,-0.000839939049910754,-0.0009926552884280682,-0.0005345066892914474
1659103345968373800,4.642373779296875,-0.0005345066892914474,-0.0012980876490473747,0.0009926552884280682
1659103345978044700,4.652044677734375,-0.000839939049910754,-0.0006872228696011007,0.00038179047987796366
1659103345987715800,4.6617158203125,-0.0011453714687377214,-0.0016035200096666813,0.0006872228696011007
1659103345997386800,4.67138671875,-0.001450803829357028,-0.0006872228696011007,-0.0005345066892914474
1659103346007057700,4.6810576171875,-0.0011453714687377214,-0.0009926552884280682,-0.0005345066892914474
1659103346016728800,4.690728759765625,-0.0005345066892914474,0.00022907429956831038,-0.000839939049910754
1659103346026399700,4.700399658203125,-0.0005345066892914474,-0.00007635809743078426,-0.0005345066892914474
1659103346036070700,4.710070556640625,-0.000839939049910754,0.00022907429956831038,-0.0005345066892914474
1659103346045741800,4.719741943359375,-0.000839939049910754,-0.00038179047987796366,0.00007635809743078426
1659103346055412700,4.729412841796875,-0.0005345066892914474,-0.0006872228696011007,0.00038179047987796366
1659103346065083600,4.739083740234375,-0.000839939049910754,-0.0009926552884280682,-0.00022907429956831038
1659103346074754800,4.7487548828125,0.00007635809743078426,-0.0012980876490473747,0.0009926552884280682
1659103346084425700,4.75842578125,-0.00022907429956831038,-0.0006872228696011007,0.0006872228696011007
1659103346094097000,4.768096923828125,-0.0005345066892914474,-0.0006872228696011007,0.00038179047987796366
1659103346103767800,4.777767822265625,-0.000839939049910754,-0.0009926552884280682,0.00007635809743078426
1659103346113438700,4.787438720703125,-0.0005345066892914474,-0.0009926552884280682,0.00038179047987796366
1659103346123110000,4.79710986328125,-0.000839939049910754,-0.00038179047987796366,-0.000839939049910754
1659103346132780800,4.80678076171875,-0.0011453714687377214,-0.00007635809743078426,-0.00022907429956831038
1659103346142451700,4.81645166015625,-0.00022907429956831038,-0.0006872228696011007,-0.00022907429956831038
1659103346152122600,4.82612255859375,-0.000839939049910754,-0.00007635809743078426,0.0006872228696011007
1659103346161793800,4.835793701171875,-0.000839939049910754,-0.00038179047987796366,-0.0005345066892914474
1659103346171464700,4.845464599609375,-0.0011453714687377214,-0.0009926552884280682,-0.00022907429956831038
1659103346181135600,4.855135498046875,-0.0011453714687377214,-0.00038179047987796366,-0.00022907429956831038
1659103346190806800,4.864806884765625,-0.00022907429956831038,-0.0006872228696011007,-0.00022907429956831038
1659103346200477700,4.874477783203125,0.00007635809743078426,-0.0006872228696011007,0.00007635809743078426
1659103346210148900,4.88414892578125,-0.00022907429956831038,-0.0006872228696011007,0.0009926552884280682
1659103346219819800,4.89381982421875,-0.0011453714687377214,-0.0006872228696011007,0.00007635809743078426
1659103346229491000,4.903490966796875,-0.0005345066892914474,-0.00038179047987796366,-0.00022907429956831038
1659103346239161900,4.913161865234375,-0.000839939049910754,-0.00007635809743078426,-0.00022907429956831038
1659103346248832800,4.922832763671875,0.00007635809743078426,-0.00007635809743078426,-0.00022907429956831038
1659103346258504000,4.93250390625,-0.000839939049910754,-0.00038179047987796366,-0.0005345066892914474
1659103346268174800,4.9421748046875,-0.001450803829357028,-0.0006872228696011007,-0.00022907429956831038
1659103346277845800,4.951845703125,-0.0011453714687377214,-0.0009926552884280682,-0.00022907429956831038
1659103346287517000,4.961516845703125,-0.000839939049910754,-0.0006872228696011007,0.00038179047987796366
1659103346297187800,4.971187744140625,-0.000839939049910754,-0.0006872228696011007,-0.0005345066892914474
1659103346306858800,4.980858642578125,-0.001450803829357028,-0.0006872228696011007,-0.000839939049910754
1659103346316530000,4.990530029296875,-0.0011453714687377214,-0.00038179047987796366,0.00007635809743078426
1659103346326200800,5.000200927734375,-0.001450803829357028,-0.0006872228696011007,0.0009926552884280682
1659103346335872000,5.0098720703125,-0.000839939049910754,-0.0009926552884280682,0.0009926552884280682
1659103346345543000,5.01954296875,-0.0011453714687377214,-0.00038179047987796366,0.00038179047987796366
1659103346355213800,5.0292138671875,-0.0005345066892914474,-0.00038179047987796366,0.00007635809743078426
1659103346364885000,5.038885009765625,-0.00022907429956831038,-0.0006872228696011007,-0.0011453714687377214
1659103346374556000,5.048555908203125,-0.0011453714687377214,-0.0016035200096666813,0.0012980876490473747
1659103346384226800,5.058226806640625,-0.0005345066892914474,-0.0006872228696011007,0.00038179047987796366
1659103346393898000,5.06789794921875,-0.0011453714687377214,-0.0009926552884280682,-0.0005345066892914474
1659103346403569000,5.07756884765625,-0.0005345066892914474,-0.00038179047987796366,-0.000839939049910754
1659103346413239800,5.08723974609375,-0.001450803829357028,-0.0006872228696011007,-0.00022907429956831038
1659103346422911000,5.096910888671875,-0.000839939049910754,-0.0012980876490473747,0.00038179047987796366
1659103346432582000,5.106581787109375,-0.001450803829357028,-0.00038179047987796366,-0.00022907429956831038
1659103346442252800,5.116252685546875,-0.0011453714687377214,-0.0012980876490473747,0.0006872228696011007
1659103346451924000,5.125924072265625,-0.0005345066892914474,-0.0006872228696011007,0.00007635809743078426
1659103346461595100,5.13559521484375,-0.000839939049910754,-0.0009926552884280682,-0.001450803829357028
1659103346471266000,5.14526611328125,-0.001450803829357028,-0.0009926552884280682,0.0006872228696011007
1659103346480937000,5.15493701171875,-0.0005345066892914474,-0.0006872228696011007,0.0006872228696011007
1659103346490608000,5.164608154296875,-0.000839939049910754,-0.0009926552884280682,0.00038179047987796366
1659103346500279000,5.174279052734375,-0.0005345066892914474,-0.0012980876490473747,0.00007635809743078426
1659103346509950000,5.183949951171875,-0.0005345066892914474,0.00022907429956831038,0.00007635809743078426
1659103346519621000,5.19362109375,-0.000839939049910754,-0.0006872228696011007,0.00007635809743078426
1659103346529292000,5.2032919921875,-0.00022907429956831038,-0.00038179047987796366,-0.000839939049910754
1659103346538963000,5.212962890625,-0.000839939049910754,-0.00038179047987796366,-0.00022907429956831038
1659103346548634000,5.222634033203125,-0.0005345066892914474,-0.0009926552884280682,-0.000839939049910754
1659103346558305000,5.232304931640625,-0.000839939049910754,-0.0009926552884280682,0.0006872228696011007
1659103346567976000,5.241975830078125,-0.0011453714687377214,-0.00007635809743078426,0.0012980876490473747
1659103346577647000,5.251647216796875,-0.0005345066892914474,-0.0006872228696011007,-0.00022907429956831038
1659103346587318000,5.261318115234375,-0.0005345066892914474,-0.0006872228696011007,-0.000839939049910754
1659103346596989200,5.2709892578125,-0.0005345066892914474,-0.0006872228696011007,0.00007635809743078426
1659103346606660000,5.28066015625,-0.00022907429956831038,-0.0006872228696011007,0.00007635809743078426
1659103346616331300,5.290331298828125,-0.0005345066892914474,-0.0009926552884280682,0.00007635809743078426
1659103346626002200,5.300002197265625,-0.000839939049910754,-0.0006872228696011007,0.0009926552884280682
1659103346635673000,5.309673095703125,-0.0011453714687377214,-0.0012980876490473747,0.00038179047987796366
1659103346645344300,5.31934423828125,-0.0005345066892914474,-0.0006872228696011007,0.0006872228696011007
1659103346655015200,5.32901513671875,-0.000839939049910754,-0.00007635809743078426,-0.00022907429956831038
1659103346664686300,5.338686279296875,-0.0005345066892914474,-0.0009926552884280682,0.00007635809743078426
1659103346674357200,5.348357177734375,-0.0011453714687377214,-0.0006872228696011007,-0.0005345066892914474
1659103346684028200,5.358028076171875,-0.000839939049910754,-0.0006872228696011007,0.00007635809743078426
1659103346693699300,5.36769921875,-0.000839939049910754,-0.00007635809743078426,0.0009926552884280682
1659103346703370200,5.377370361328125,-0.000839939049910754,-0.0009926552884280682,0.00007635809743078426
1659103346713041200,5.387041259765625,-0.0011453714687377214,-0.0009926552884280682,0.00038179047987796366
1659103346722712300,5.39671240234375,-0.0005345066892914474,-0.00038179047987796366,0.0006872228696011007
1659103346732383200,5.40638330078125,-0.0011453714687377214,-0.0012980876490473747,-0.00022907429956831038
1659103346742054400,5.416054443359375,-0.000839939049910754,-0.0009926552884280682,-0.0005345066892914474
1659103346751725300,5.425725341796875,-0.0011453714687377214,-0.0009926552884280682,-0.00022907429956831038
1659103346761396500,5.435396484375,-0.0017562361899763346,-0.0009926552884280682,0.0016035200096666813
1659103346771067400,5.4450673828125,-0.00022907429956831038,-0.00007635809743078426,-0.00022907429956831038
1659103346780738600,5.454738525390625,-0.0005345066892914474,-0.0012980876490473747,-0.0005345066892914474
1659103346790409500,5.464409423828125,-0.0005345066892914474,-0.00007635809743078426,-0.0005345066892914474
1659103346800080400,5.474080322265625,-0.00022907429956831038,-0.00038179047987796366,0.00038179047987796366
1659103346809751600,5.48375146484375,-0.0005345066892914474,-0.0012980876490473747,0.00007635809743078426
1659103346819422500,5.49342236328125,-0.00022907429956831038,-0.0006872228696011007,-0.0005345066892914474
1659103346829093400,5.50309326171875,-0.001450803829357028,-0.00038179047987796366,0.00038179047987796366
1659103346838764500,5.5127646484375,-0.0005345066892914474,-0.00038179047987796366,-0.00022907429956831038
1659103346848435500,5.522435546875,-0.0005345066892914474,-0.0006872228696011007,-0.0005345066892914474
1659103346858106600,5.532106689453125,-0.0011453714687377214,-0.0009926552884280682,-0.00022907429956831038
1659103346867777500,5.541777587890625,-0.0005345066892914474,-0.00038179047987796366,0.00007635809743078426
1659103346877448400,5.551448486328125,-0.000839939049910754,-0.0006872228696011007,-0.00022907429956831038
1659103346887119600,5.56111962890625,-0.000839939049910754,-0.0006872228696011007,0.0019089524867013097
1659103346896790500,5.57079052734375,-0.0011453714687377214,-0.00038179047987796366,0.00007635809743078426
1659103346906461700,5.580461669921875,-0.000839939049910754,-0.0012980876490473747,-0.00022907429956831038
1659103346916132600,5.590132568359375,-0.000839939049910754,-0.0012980876490473747,-0.0005345066892914474
1659103346925803800,5.5998037109375,-0.0005345066892914474,-0.0012980876490473747,0.00007635809743078426
1659103346935474700,5.609474609375,-0.0011453714687377214,-0.0006872228696011007,0.0012980876490473747
1659103346945145900,5.619145751953125,-0.001450803829357028,-0.0009926552884280682,0.0006872228696011007
1659103346954816800,5.628816650390625,-0.0005345066892914474,-0.00038179047987796366,-0.00022907429956831038
1659103346964487700,5.63848779296875,-0.000839939049910754,-0.0009926552884280682,0.00007635809743078426
1659103346974158800,5.648158935546875,-0.0011453714687377214,-0.00038179047987796366,-0.000839939049910754
1659103346983829800,5.657829833984375,-0.0011453714687377214,-0.0009926552884280682,0.00038179047987796366
1659103346993500700,5.667500732421875,-0.0005345066892914474,-0.0006872228696011007,-0.0005345066892914474
1659103347003171800,5.677171875,-0.00022907429956831038,-0.00007635809743078426,0.00038179047987796366
1659103347012842800,5.6868427734375,-0.0005345066892914474,-0.0012980876490473747,-0.00022907429956831038
1659103347022514000,5.696513916015625,-0.0011453714687377214,-0.00038179047987796366,-0.00022907429956831038
1659103347032184800,5.706184814453125,-0.0011453714687377214,-0.00038179047987796366,0.00007635809743078426
1659103347041856000,5.71585595703125,-0.00022907429956831038,-0.0006872228696011007,-0.0005345066892914474
1659103347051527000,5.72552685546875,-0.00022907429956831038,-0.0006872228696011007,-0.0005345066892914474
1659103347061197800,5.73519775390625,-0.000839939049910754,-0.00038179047987796366,0.00007635809743078426
1659103347070869000,5.744868896484375,-0.0011453714687377214,-0.0006872228696011007,0.00038179047987796366
1659103347080540000,5.754539794921875,-0.001450803829357028,-0.0006872228696011007,0.00038179047987796366
1659103347090211000,5.764211181640625,-0.0011453714687377214,-0.00038179047987796366,0.00038179047987796366
1659103347099882000,5.773882080078125,-0.000839939049910754,-0.0006872228696011007,0.00038179047987796366
1659103347109553200,5.78355322265625,-0.0005345066892914474,-0.0009926552884280682,-0.000839939049910754
1659103347119224000,5.79322412109375,-0.000839939049910754,-0.0009926552884280682,-0.0005345066892914474
1659103347128895200,5.802895263671875,-0.000839939049910754,-0.0006872228696011007,0.00007635809743078426
1659103347138566100,5.812566162109375,-0.0011453714687377214,-0.0006872228696011007,-0.00022907429956831038
1659103347148237000,5.822237060546875,-0.000839939049910754,-0.0006872228696011007,-0.0005345066892914474
1659103347157908200,5.831908203125,-0.000839939049910754,-0.00007635809743078426,0.0006872228696011007
1659103347167579100,5.8415791015625,-0.000839939049910754,-0.00038179047987796366,-0.00022907429956831038
1659103347177250300,5.851250244140625,-0.0011453714687377214,-0.0006872228696011007,0.00038179047987796366
1659103347186921200,5.860921142578125,-0.0011453714687377214,-0.0006872228696011007,0.00038179047987796366
1659103347196592400,5.87059228515625,-0.000839939049910754,-0.00007635809743078426,-0.00022907429956831038
1659103347206263300,5.88026318359375,-0.000839939049910754,-0.00038179047987796366,-0.0005345066892914474
1659103347215934200,5.889934326171875,0.00007635809743078426,-0.00007635809743078426,-0.00022907429956831038
1659103347225605400,5.89960546875,-0.0011453714687377214,-0.0009926552884280682,0.00007635809743078426
1659103347235276300,5.9092763671875,-0.000839939049910754,-0.0012980876490473747,0.0012980876490473747
1659103347244947500,5.918947509765625,-0.0011453714687377214,-0.0009926552884280682,-0.00022907429956831038
1659103347254618400,5.928618408203125,-0.0005345066892914474,-0.0006872228696011007,0.00007635809743078426
1659103347264289300,5.938289306640625,-0.0011453714687377214,-0.0006872228696011007,-0.00022907429956831038
1659103347273960400,5.94796044921875,-0.0017562361899763346,-0.0009926552884280682,-0.0005345066892914474
1659103347283631400,5.95763134765625,-0.0011453714687377214,-0.00007635809743078426,0.00007635809743078426
1659103347293302500,5.967302490234375,-0.000839939049910754,-0.0006872228696011007,0.00007635809743078426
1659103347302973400,5.976973388671875,-0.0005345066892914474,-0.00038179047987796366,0.0009926552884280682
1659103347312644600,5.98664453125,-0.000839939049910754,-0.0006872228696011007,0.0012980876490473747
1659103347322315500,5.9963154296875,-0.000839939049910754,-0.0006872228696011007,0.0006872228696011007
1659103347331986700,6.005986572265625,-0.0011453714687377214,-0.0009926552884280682,0.00038179047987796366
1659103347341657600,6.01565771484375,-0.000839939049910754,-0.00038179047987796366,0.0006872228696011007
1659103347351328800,6.025328857421875,-0.0005345066892914474,-0.00007635809743078426,0.00038179047987796366
1659103347360999700,6.034999755859375,-0.000839939049910754,-0.00038179047987796366,-0.00022907429956831038
1659103347370670800,6.0446708984375,-0.0005345066892914474,-0.0006872228696011007,-0.000839939049910754
1659103347380341800,6.054341796875,-0.000839939049910754,-0.0006872228696011007,0.00038179047987796366
1659103347390013000,6.064012939453125,-0.00022907429956831038,-0.0006872228696011007,0.00007635809743078426
1659103347399683800,6.073683837890625,-0.0005345066892914474,-0.00038179047987796366,-0.00022907429956831038
1659103347409354800,6.083354736328125,-0.0011453714687377214,-0.0009926552884280682,0.0012980876490473747
1659103347419026000,6.09302587890625,-0.001450803829357028,-0.0009926552884280682,-0.00022907429956831038
1659103347428696800,6.10269677734375,-0.000839939049910754,-0.0006872228696011007,0.00038179047987796366
1659103347438368000,6.112367919921875,-0.0005345066892914474,-0.00007635809743078426,0.00038179047987796366
1659103347448039000,6.122038818359375,0.00007635809743078426,-0.0009926552884280682,0.0006872228696011007
1659103347457710000,6.1317099609375,-0.001450803829357028,-0.0009926552884280682,-0.00022907429956831038
1659103347467381000,6.141381103515625,-0.001450803829357028,-0.0012980876490473747,-0.00022907429956831038
1659103347477052200,6.15105224609375,-0.0011453714687377214,-0.0006872228696011007,0.0006872228696011007
1659103347486723000,6.16072314453125,-0.0011453714687377214,-0.00038179047987796366,0.0006872228696011007
1659103347496394000,6.17039404296875,-0.0011453714687377214,-0.0006872228696011007,-0.00022907429956831038
1659103347506065200,6.180065185546875,0.00007635809743078426,-0.0009926552884280682,0.0006872228696011007
1659103347515736000,6.189736083984375,-0.00022907429956831038,-0.00007635809743078426,0.00007635809743078426
1659103347525407200,6.1994072265625,-0.001450803829357028,-0.00038179047987796366,0.0006872228696011007
1659103347535078100,6.209078125,-0.0011453714687377214,-0.0006872228696011007,0.00007635809743078426
1659103347544749300,6.218749267578125,-0.0011453714687377214,-0.0006872228696011007,-0.000839939049910754
1659103347554420200,6.228420166015625,-0.0005345066892914474,-0.0012980876490473747,0.0006872228696011007
1659103347564091400,6.23809130859375,-0.001450803829357028,-0.0012980876490473747,0.00038179047987796366
1659103347573762300,6.24776220703125,-0.0017562361899763346,-0.0012980876490473747,0.00007635809743078426
1659103347583433200,6.25743310546875,-0.0005345066892914474,-0.0006872228696011007,0.00038179047987796366
1659103347593104400,6.2671044921875,-0.000839939049910754,-0.0009926552884280682,-0.00022907429956831038
1659103347602775600,6.276775634765625,-0.0005345066892914474,-0.0006872228696011007,-0.00022907429956831038
1659103347612446500,6.286446533203125,-0.0011453714687377214,-0.00038179047987796366,0.00007635809743078426
1659103347622117600,6.29611767578125,-0.001450803829357028,-0.0006872228696011007,0.00038179047987796366
1659103347631788500,6.30578857421875,-0.0011453714687377214,-0.0006872228696011007,0.00038179047987796366
1659103347641459700,6.315459716796875,-0.0005345066892914474,-0.0006872228696011007,-0.00022907429956831038
1659103347651130600,6.325130615234375,-0.0011453714687377214,-0.00007635809743078426,0.00038179047987796366
1659103347660801800,6.3348017578125,-0.0011453714687377214,-0.0009926552884280682,0.0006872228696011007
1659103347670472700,6.34447265625,-0.001450803829357028,-0.0006872228696011007,0.00007635809743078426
1659103347680144000,6.354143798828125,-0.0005345066892914474,-0.0006872228696011007,0.0012980876490473747
1659103347689814800,6.363814697265625,-0.000839939049910754,-0.0006872228696011007,0.00007635809743078426
1659103347699485700,6.373485595703125,-0.0011453714687377214,-0.0006872228696011007,0.0006872228696011007
1659103347709156900,6.383156982421875,-0.0011453714687377214,-0.00007635809743078426,-0.0005345066892914474
1659103347718827800,6.392827880859375,-0.0011453714687377214,-0.0006872228696011007,0.00007635809743078426
1659103347728499000,6.4024990234375,-0.001450803829357028,-0.0009926552884280682,0.0009926552884280682
1659103347738169900,6.412169921875,-0.000839939049910754,-0.0006872228696011007,-0.00022907429956831038
1659103347747841000,6.421841064453125,-0.0011453714687377214,-0.0016035200096666813,0.00007635809743078426
1659103347757512000,6.431511962890625,0.00007635809743078426,-0.0006872228696011007,0.0006872228696011007
1659103347767183000,6.44118310546875,-0.00022907429956831038,-0.0006872228696011007,0.0006872228696011007
1659103347776854000,6.45085400390625,-0.0011453714687377214,-0.0006872228696011007,0.0009926552884280682
1659103347786525200,6.460525146484375,-0.001450803829357028,-0.00038179047987796366,0.00007635809743078426
1659103347796196000,6.470196044921875,0.00038179047987796366,-0.0006872228696011007,0.0009926552884280682
1659103347805867300,6.4798671875,-0.00022907429956831038,-0.0012980876490473747,0.00038179047987796366
1659103347815538200,6.4895380859375,-0.00022907429956831038,-0.0006872228696011007,0.0012980876490473747
1659103347825209300,6.499209228515625,-0.0011453714687377214,-0.00007635809743078426,0.00007635809743078426
1659103347834880300,6.50888037109375,-0.000839939049910754,-0.0009926552884280682,0.00038179047987796366
1659103347844551400,6.518551513671875,-0.001450803829357028,-0.0012980876490473747,0.00038179047987796366
1659103347854222300,6.528222412109375,-0.00022907429956831038,-0.0006872228696011007,0.00007635809743078426
1659103347863893200,6.537893310546875,-0.00022907429956831038,-0.0009926552884280682,-0.000839939049910754
1659103347873564400,6.547564453125,-0.001450803829357028,-0.00038179047987796366,0.00007635809743078426
1659103347883235300,6.5572353515625,-0.000839939049910754,-0.0009926552884280682,0.00038179047987796366
1659103347892906500,6.566906494140625,-0.00022907429956831038,-0.0006872228696011007,0.0006872228696011007
1659103347902577400,6.576577392578125,-0.000839939049910754,-0.0006872228696011007,0.0009926552884280682
1659103347912248600,6.58624853515625,-0.000839939049910754,-0.0006872228696011007,0.00038179047987796366
1659103347921919500,6.59591943359375,-0.000839939049910754,-0.0009926552884280682,0.00007635809743078426
1659103347931590700,6.605590576171875,-0.000839939049910754,0.00022907429956831038,-0.000839939049910754
1659103347941261600,6.615261474609375,-0.001450803829357028,-0.0009926552884280682,-0.0005345066892914474
1659103347950932700,6.6249326171875,-0.0005345066892914474,-0.0006872228696011007,0.0009926552884280682
1659103347960603600,6.634603759765625,-0.0005345066892914474,-0.0006872228696011007,-0.00022907429956831038
1659103347970274800,6.64427490234375,-0.000839939049910754,-0.0006872228696011007,-0.00022907429956831038
1659103347979945700,6.65394580078125,-0.000839939049910754,-0.0012980876490473747,0.00007635809743078426
1659103347989617000,6.663616943359375,0.00038179047987796366,-0.0009926552884280682,-0.00022907429956831038
1659103347999287800,6.673287841796875,-0.0011453714687377214,-0.0012980876490473747,0.0009926552884280682
1659103348008959000,6.682958984375,-0.001450803829357028,-0.0009926552884280682,-0.00022907429956831038
1659103348018630000,6.6926298828125,-0.001450803829357028,-0.0006872228696011007,0.0006872228696011007
1659103348028301000,6.702301025390625,-0.000839939049910754,-0.0006872228696011007,0.0009926552884280682
1659103348037972000,6.711971923828125,-0.0005345066892914474,-0.0009926552884280682,-0.00022907429956831038
1659103348047643100,6.72164306640625,-0.000839939049910754,-0.0006872228696011007,0.00007635809743078426
1659103348057314000,6.73131396484375,-0.000839939049910754,-0.0006872228696011007,0.0006872228696011007
1659103348066985200,6.740985107421875,-0.00022907429956831038,-0.0006872228696011007,-0.00022907429956831038
1659103348076656400,6.750656494140625,-0.0005345066892914474,-0.0012980876490473747,0.0006872228696011007
1659103348086327300,6.760327392578125,0.00007635809743078426,-0.0016035200096666813,0.0006872228696011007
1659103348095998500,6.76999853515625,-0.001450803829357028,-0.0009926552884280682,-0.0005345066892914474
1659103348105669400,6.77966943359375,-0.0005345066892914474,-0.0009926552884280682,0.00007635809743078426
1659103348115340500,6.789340576171875,-0.0005345066892914474,-0.0009926552884280682,-0.00022907429956831038
1659103348125011500,6.799011474609375,-0.0005345066892914474,-0.00038179047987796366,0.00007635809743078426
1659103348134682600,6.8086826171875,-0.0005345066892914474,-0.00007635809743078426,0.00007635809743078426
1659103348144353500,6.818353515625,-0.0011453714687377214,-0.0006872228696011007,0.00038179047987796366
1659103348154024700,6.828024658203125,-0.0005345066892914474,-0.00038179047987796366,-0.000839939049910754
1659103348163695600,6.837695556640625,-0.0005345066892914474,-0.0012980876490473747,0.00007635809743078426
1659103348173366800,6.84736669921875,-0.00022907429956831038,-0.00038179047987796366,-0.0005345066892914474
1659103348183037700,6.85703759765625,-0.00022907429956831038,-0.0006872228696011007,-0.0005345066892914474
1659103348192708900,6.866708984375,-0.000839939049910754,-0.0009926552884280682,0.00007635809743078426
1659103348202379800,6.8763798828125,-0.00022907429956831038,-0.0009926552884280682,0.0006872228696011007
1659103348212051000,6.886051025390625,-0.000839939049910754,-0.0009926552884280682,0.0009926552884280682
1659103348221721900,6.895721923828125,-0.0011453714687377214,-0.0009926552884280682,-0.0011453714687377214
1659103348231393000,6.90539306640625,-0.001450803829357028,-0.0009926552884280682,0.00038179047987796366
1659103348241064000,6.91506396484375,-0.0011453714687377214,-0.0009926552884280682,0.00007635809743078426
1659103348250735000,6.924735107421875,-0.0005345066892914474,-0.0009926552884280682,-0.0005345066892914474
1659103348260406000,6.934406005859375,-0.0005345066892914474,-0.00007635809743078426,0.00038179047987796366
1659103348270077200,6.9440771484375,-0.000839939049910754,0.00022907429956831038,-0.00022907429956831038
1659103348279748000,6.953748046875,-0.0005345066892914474,-0.0009926552884280682,0.00007635809743078426
1659103348289419300,6.963419189453125,-0.0011453714687377214,-0.0009926552884280682,0.00007635809743078426
1659103348299090200,6.973090087890625,-0.000839939049910754,-0.00038179047987796366,-0.0005345066892914474
1659103348308761300,6.98276123046875,-0.0011453714687377214,-0.0009926552884280682,0.0009926552884280682
1659103348318432300,6.992432373046875,-0.00022907429956831038,-0.00038179047987796366,-0.00022907429956831038
1659103348328103400,7.002103515625,-0.0005345066892914474,-0.0006872228696011007,0.0006872228696011007
1659103348337774300,7.0117744140625,-0.000839939049910754,-0.0009926552884280682,0.00007635809743078426
1659103348347445500,7.021445556640625,-0.0005345066892914474,-0.0012980876490473747,-0.0005345066892914474
1659103348357116400,7.031116455078125,-0.0011453714687377214,-0.0006872228696011007,-0.0011453714687377214
1659103348366787600,7.04078759765625,-0.001450803829357028,-0.0006872228696011007,0.00007635809743078426
1659103348376458500,7.05045849609375,-0.00022907429956831038,-0.0009926552884280682,0.00038179047987796366
1659103348386129700,7.060129638671875,-0.000839939049910754,-0.0006872228696011007,0.00038179047987796366
1659103348395800600,7.069800537109375,-0.000839939049910754,-0.0006872228696011007,0.00038179047987796366
1659103348405471700,7.0794716796875,-0.00022907429956831038,-0.0012980876490473747,0.00038179047987796366
1659103348415143000,7.089142822265625,-0.0011453714687377214,-0.00007635809743078426,0.0009926552884280682
1659103348424813800,7.098813720703125,-0.0005345066892914474,-0.00007635809743078426,-0.0005345066892914474
1659103348434485000,7.108485107421875,-0.0005345066892914474,-0.00038179047987796366,0.0006872228696011007
1659103348444156000,7.118156005859375,-0.0011453714687377214,-0.0012980876490473747,0.00007635809743078426
1659103348453827000,7.1278271484375,-0.0005345066892914474,-0.0009926552884280682,-0.000839939049910754
1659103348463498000,7.137498046875,-0.0017562361899763346,-0.0012980876490473747,0.0006872228696011007
1659103348473169200,7.147169189453125,-0.000839939049910754,-0.0006872228696011007,0.0006872228696011007
1659103348482840000,7.156840087890625,-0.0005345066892914474,-0.00007635809743078426,-0.0005345066892914474
1659103348492511200,7.16651123046875,-0.000839939049910754,-0.00038179047987796366,0.0006872228696011007
1659103348502182100,7.17618212890625,-0.000839939049910754,0.00022907429956831038,0.00007635809743078426
1659103348511853300,7.185853271484375,-0.0017562361899763346,-0.0006872228696011007,-0.0005345066892914474
1659103348521524200,7.195524169921875,-0.000839939049910754,-0.0009926552884280682,-0.0005345066892914474
1659103348531195400,7.2051953125,-0.0011453714687377214,-0.0009926552884280682,0.0006872228696011007
1659103348540866300,7.2148662109375,-0.000839939049910754,-0.0006872228696011007,0.00038179047987796366
1659103348550537500,7.224537353515625,-0.0011453714687377214,-0.0009926552884280682,-0.00022907429956831038
1659103348560208400,7.23420849609375,-0.0005345066892914474,-0.0012980876490473747,0.0006872228696011007
1659103348569879600,7.243879638671875,-0.0005345066892914474,-0.0009926552884280682,0.00038179047987796366
1659103348579550500,7.253550537109375,-0.0011453714687377214,-0.0016035200096666813,0.00007635809743078426
1659103348589221600,7.2632216796875,-0.00022907429956831038,-0.0006872228696011007,0.00038179047987796366
1659103348598892800,7.272892822265625,0.00038179047987796366,-0.0012980876490473747,0.00007635809743078426
1659103348608563700,7.282563720703125,-0.00022907429956831038,-0.00038179047987796366,0.0006872228696011007
1659103348618235000,7.29223486328125,-0.0005345066892914474,-0.0006872228696011007,0.00007635809743078426
1659103348627905800,7.30190576171875,-0.0005345066892914474,-0.0012980876490473747,0.0006872228696011007
1659103348637577000,7.311576904296875,-0.0011453714687377214,-0.0009926552884280682,0.00038179047987796366
1659103348647248000,7.321247802734375,-0.001450803829357028,-0.00038179047987796366,0.00038179047987796366
1659103348656919000,7.3309189453125,-0.000839939049910754,-0.0009926552884280682,0.0006872228696011007
1659103348666590000,7.34058984375,-0.0011453714687377214,-0.0012980876490473747,0.0009926552884280682
1659103348676261000,7.35026123046875,-0.001450803829357028,-0.00038179047987796366,-0.000839939049910754
1659103348685932000,7.35993212890625,-0.001450803829357028,-0.0012980876490473747,0.00007635809743078426
1659103348695603200,7.369603271484375,-0.000839939049910754,-0.0006872228696011007,0.00038179047987796366
1659103348705274400,7.3792744140625,-0.000839939049910754,-0.0006872228696011007,0.00007635809743078426
1659103348714945300,7.3889453125,-0.0005345066892914474,-0.0006872228696011007,0.00007635809743078426
1659103348724616400,7.398616455078125,-0.000839939049910754,-0.00038179047987796366,0.00007635809743078426
1659103348734287400,7.408287353515625,-0.0005345066892914474,-0.0009926552884280682,0.00038179047987796366
1659103348743958500,7.41795849609375,-0.00022907429956831038,-0.00038179047987796366,-0.000839939049910754
1659103348753629400,7.42762939453125,-0.0011453714687377214,-0.0006872228696011007,-0.00022907429956831038
1659103348763300600,7.437300537109375,-0.001450803829357028,-0.00038179047987796366,-0.00022907429956831038
1659103348772971500,7.446971435546875,-0.0011453714687377214,-0.0006872228696011007,-0.000839939049910754
1659103348782642700,7.456642578125,-0.000839939049910754,-0.0006872228696011007,0.00038179047987796366
1659103348792313600,7.466313720703125,-0.000839939049910754,-0.00007635809743078426,-0.00022907429956831038
1659103348801984800,7.47598486328125,-0.00022907429956831038,-0.0006872228696011007,-0.00022907429956831038
1659103348811656000,7.485656005859375,-0.0011453714687377214,-0.00007635809743078426,0.00007635809743078426
1659103348821326800,7.495326904296875,-0.0005345066892914474,-0.00038179047987796366,-0.00022907429956831038
1659103348830998000,7.504998046875,-0.000839939049910754,-0.0009926552884280682,0.0006872228696011007
1659103348840669000,7.5146689453125,-0.00022907429956831038,-0.00038179047987796366,0.0012980876490473747
1659103348850340000,7.524340087890625,-0.0011453714687377214,-0.0006872228696011007,-0.0005345066892914474
1659103348860011000,7.534010986328125,-0.0017562361899763346,-0.0006872228696011007,-0.0005345066892914474
1659103348869682200,7.54368212890625,-0.00022907429956831038,-0.00038179047987796366,-0.0005345066892914474
1659103348879353000,7.55335302734375,-0.000839939049910754,-0.00038179047987796366,0.0016035200096666813
1659103348889024300,7.563024169921875,-0.000839939049910754,-0.0006872228696011007,0.0006872228696011007
1659103348898695400,7.5726953125,-0.000839939049910754,-0.0006872228696011007,0.0006872228696011007
1659103348908366300,7.582366455078125,-0.00022907429956831038,-0.0006872228696011007,-0.00022907429956831038
1659103348918037500,7.59203759765625,-0.0011453714687377214,-0.0006872228696011007,0.00038179047987796366
1659103348927708400,7.60170849609375,-0.000839939049910754,-0.0009926552884280682,0.00007635809743078426
1659103348937379600,7.611379638671875,-0.000839939049910754,-0.00038179047987796366,0.00007635809743078426
1659103348947050500,7.621050537109375,-0.001450803829357028,-0.00007635809743078426,0.0006872228696011007
1659103348956721700,7.6307216796875,-0.0011453714687377214,-0.0012980876490473747,0.00007635809743078426
1659103348966392600,7.640392578125,-0.0011453714687377214,-0.00007635809743078426,-0.0005345066892914474
1659103348976063700,7.650063720703125,-0.000839939049910754,-0.00007635809743078426,0.0009926552884280682
1659103348985735000,7.65973486328125,-0.000839939049910754,-0.0006872228696011007,0.0006872228696011007
1659103348995405800,7.66940576171875,-0.0005345066892914474,-0.0009926552884280682,0.00038179047987796366
1659103349005077000,7.679076904296875,-0.0005345066892914474,-0.0009926552884280682,-0.0005345066892914474
1659103349014748000,7.688747802734375,-0.0005345066892914474,-0.0006872228696011007,0.0009926552884280682
1659103349024419000,7.698419189453125,-0.0005345066892914474,-0.00038179047987796366,0.00007635809743078426
1659103349034090000,7.708090087890625,-0.00022907429956831038,-0.00007635809743078426,0.0006872228696011007
1659103349043761200,7.71776123046875,-0.000839939049910754,-0.0006872228696011007,0.00038179047987796366
1659103349053432300,7.727432373046875,-0.0011453714687377214,-0.0019089524867013097,-0.000839939049910754
1659103349063103200,7.737103271484375,-0.0011453714687377214,-0.0006872228696011007,-0.000839939049910754
1659103349072774400,7.7467744140625,-0.0005345066892914474,-0.0006872228696011007,0.00038179047987796366
1659103349082445300,7.7564453125,-0.00022907429956831038,-0.0006872228696011007,0.00007635809743078426
1659103349092116500,7.766116455078125,-0.0011453714687377214,-0.0012980876490473747,0.00007635809743078426
1659103349101787400,7.775787353515625,-0.0011453714687377214,-0.0006872228696011007,0.00007635809743078426
1659103349111458600,7.78545849609375,-0.000839939049910754,-0.00038179047987796366,-0.00022907429956831038
1659103349121129500,7.79512939453125,-0.000839939049910754,-0.0006872228696011007,-0.00022907429956831038
1659103349130800600,7.804800537109375,-0.00022907429956831038,-0.0006872228696011007,-0.0005345066892914474
1659103349140471600,7.814471435546875,-0.000839939049910754,-0.0009926552884280682,-0.0005345066892914474
1659103349150142700,7.824142822265625,0.00007635809743078426,-0.00038179047987796366,0.0009926552884280682
1659103349159813600,7.833813720703125,-0.0005345066892914474,-0.0016035200096666813,0.00038179047987796366
1659103349169484800,7.84348486328125,-0.0005345066892914474,-0.00038179047987796366,-0.00022907429956831038
1659103349179156000,7.853156005859375,-0.0005345066892914474,-0.0006872228696011007,-0.00022907429956831038
1659103349188827000,7.862826904296875,-0.0005345066892914474,-0.00038179047987796366,0.0006872228696011007
1659103349198498000,7.872498046875,-0.00022907429956831038,-0.0009926552884280682,-0.00022907429956831038
1659103349208169000,7.8821689453125,-0.00022907429956831038,-0.0012980876490473747,0.00007635809743078426
1659103349217840000,7.891840087890625,-0.0011453714687377214,-0.00007635809743078426,-0.00022907429956831038
1659103349227511000,7.901510986328125,-0.00022907429956831038,-0.00038179047987796366,-0.0005345066892914474
1659103349237182200,7.91118212890625,-0.0011453714687377214,-0.0009926552884280682,-0.0011453714687377214
1659103349246853400,7.920853271484375,-0.0011453714687377214,-0.0009926552884280682,0.00038179047987796366
1659103349256524300,7.930524169921875,-0.0011453714687377214,-0.0009926552884280682,-0.00022907429956831038
1659103349266195500,7.940195556640625,-0.000839939049910754,-0.00038179047987796366,-0.00022907429956831038
1659103349275866400,7.949866455078125,-0.001450803829357028,-0.00007635809743078426,0.0012980876490473747
1659103349285537500,7.95953759765625,-0.000839939049910754,-0.00038179047987796366,0.00007635809743078426
1659103349295208400,7.96920849609375,-0.000839939049910754,-0.0006872228696011007,0.00007635809743078426
1659103349304879600,7.978879638671875,-0.0005345066892914474,-0.0006872228696011007,0.0006872228696011007
1659103349314550800,7.98855078125,-0.0011453714687377214,-0.00007635809743078426,0.00007635809743078426
1659103349324221700,7.9982216796875,-0.00022907429956831038,-0.0006872228696011007,0.00007635809743078426
1659103349333892900,8.007892822265624,-0.0005345066892914474,-0.0006872228696011007,0.00007635809743078426
1659103349343563800,8.017563720703125,-0.00022907429956831038,-0.0016035200096666813,-0.0005345066892914474
1659103349353235000,8.02723486328125,-0.001450803829357028,-0.00038179047987796366,-0.00022907429956831038
1659103349362905900,8.03690576171875,-0.0011453714687377214,-0.00007635809743078426,0.00007635809743078426
1659103349372577000,8.046576904296876,-0.0011453714687377214,-0.00007635809743078426,0.0006872228696011007
1659103349382248200,8.056248291015624,-0.0011453714687377214,-0.0006872228696011007,-0.000839939049910754
1659103349391919000,8.065919189453124,-0.000839939049910754,-0.0006872228696011007,-0.0005345066892914474
1659103349401590300,8.07559033203125,-0.001450803829357028,-0.0006872228696011007,0.00038179047987796366
1659103349411261200,8.08526123046875,-0.001450803829357028,-0.00038179047987796366,-0.0005345066892914474
1659103349420932400,8.094932373046875,-0.0005345066892914474,-0.0012980876490473747,-0.00022907429956831038
1659103349430603500,8.104603515625,-0.000839939049910754,0.00022907429956831038,0.00007635809743078426
1659103349440274400,8.1142744140625,-0.0011453714687377214,-0.0006872228696011007,0.0006872228696011007
1659103349449945600,8.123945556640624,-0.0005345066892914474,-0.0006872228696011007,0.00038179047987796366
1659103349459616500,8.133616455078124,-0.001450803829357028,-0.00038179047987796366,0.00038179047987796366
1659103349469287700,8.14328759765625,-0.000839939049910754,-0.0009926552884280682,0.0006872228696011007
1659103349478958800,8.152958740234375,-0.0011453714687377214,-0.0006872228696011007,0.0009926552884280682
1659103349488629800,8.162629638671875,-0.0011453714687377214,-0.00007635809743078426,0.0006872228696011007
1659103349498301000,8.172301025390626,-0.000839939049910754,-0.00038179047987796366,-0.00022907429956831038
1659103349507971800,8.181971923828126,-0.00022907429956831038,-0.0012980876490473747,0.00007635809743078426
1659103349517643000,8.19164306640625,-0.0011453714687377214,-0.0006872228696011007,0.0006872228696011007
1659103349527314000,8.20131396484375,-0.0005345066892914474,-0.0019089524867013097,-0.000839939049910754
1659103349536985000,8.210985107421875,-0.0005345066892914474,0.00022907429956831038,-0.0017562361899763346
1659103349546656300,8.22065625,0.00007635809743078426,-0.00038179047987796366,0.0009926552884280682
1659103349556327200,8.2303271484375,-0.0011453714687377214,-0.0006872228696011007,0.00007635809743078426
1659103349565998300,8.239998291015626,-0.000839939049910754,-0.0009926552884280682,-0.00022907429956831038
1659103349575669200,8.249669189453124,-0.001450803829357028,-0.0012980876490473747,0.0006872228696011007
1659103349585340400,8.25934033203125,-0.00022907429956831038,-0.0006872228696011007,0.0006872228696011007
1659103349595011600,8.269011474609375,-0.0005345066892914474,-0.00038179047987796366,0.00038179047987796366
1659103349604682500,8.2786826171875,-0.0011453714687377214,-0.00007635809743078426,0.0009926552884280682
1659103349614353700,8.288353759765625,-0.000839939049910754,-0.0012980876490473747,-0.00022907429956831038
1659103349624024600,8.298024658203126,-0.0011453714687377214,-0.0006872228696011007,0.00007635809743078426
1659103349633695700,8.30769580078125,-0.000839939049910754,-0.00038179047987796366,-0.0005345066892914474
1659103349643366700,8.31736669921875,-0.000839939049910754,-0.0006872228696011007,-0.00022907429956831038
1659103349653037800,8.327037841796875,-0.0005345066892914474,-0.00038179047987796366,0.00038179047987796366
1659103349662708700,8.336708740234375,-0.0005345066892914474,-0.00038179047987796366,-0.000839939049910754
1659103349672380000,8.3463798828125,-0.0005345066892914474,-0.0012980876490473747,0.00007635809743078426
1659103349682051000,8.356051025390625,-0.0005345066892914474,-0.0009926552884280682,-0.00022907429956831038
1659103349691722000,8.365721923828126,-0.000839939049910754,-0.0006872228696011007,0.00007635809743078426
1659103349701393200,8.37539306640625,-0.0011453714687377214,-0.0006872228696011007,0.00007635809743078426
1659103349711064000,8.38506396484375,-0.001450803829357028,-0.0009926552884280682,-0.0005345066892914474
1659103349720735200,8.3947353515625,-0.000839939049910754,-0.00038179047987796366,-0.00022907429956831038
1659103349730406400,8.404406494140625,-0.000839939049910754,-0.0006872228696011007,0.0012980876490473747
1659103349740077300,8.414077392578125,-0.0011453714687377214,-0.0006872228696011007,-0.0005345066892914474
1659103349749748500,8.42374853515625,-0.0011453714687377214,-0.0009926552884280682,-0.000839939049910754
1659103349759419400,8.43341943359375,0.00007635809743078426,-0.0006872228696011007,0.0006872228696011007
1659103349769090600,8.443090576171874,-0.0011453714687377214,-0.0016035200096666813,0.0009926552884280682
1659103349778761700,8.45276171875,-0.0011453714687377214,-0.0006872228696011007,-0.0005345066892914474
1659103349788432600,8.4624326171875,-0.000839939049910754,-0.0006872228696011007,-0.0005345066892914474
1659103349798103800,8.472103759765625,-0.0011453714687377214,-0.00038179047987796366,0.00007635809743078426
1659103349807774700,8.481774658203125,-0.0005345066892914474,-0.0009926552884280682,0.00007635809743078426
1659103349817446000,8.49144580078125,-0.0005345066892914474,-0.0006872228696011007,-0.00022907429956831038
1659103349827117000,8.501116943359374,-0.0005345066892914474,-0.00007635809743078426,0.00007635809743078426
1659103349836788000,8.5107880859375,-0.000839939049910754,-0.00038179047987796366,0.0006872228696011007
1659103349846459100,8.520459228515625,-0.000839939049910754,-0.0006872228696011007,0.00038179047987796366
1659103349856130000,8.530130126953125,-0.0011453714687377214,-0.00038179047987796366,-0.000839939049910754
1659103349865801200,8.53980126953125,-0.0005345066892914474,-0.00007635809743078426,0.00038179047987796366
1659103349875472400,8.549472412109376,-0.0005345066892914474,-0.00038179047987796366,0.0012980876490473747
1659103349885143300,8.559143310546874,-0.0011453714687377214,-0.00038179047987796366,-0.00022907429956831038
1659103349894814500,8.568814453125,-0.001450803829357028,-0.00038179047987796366,-0.00022907429956831038
1659103349904485400,8.5784853515625,-0.000839939049910754,-0.0009926552884280682,-0.0011453714687377214
1659103349914156500,8.588156494140625,-0.000839939049910754,-0.0012980876490473747,-0.0005345066892914474
1659103349923827700,8.59782763671875,-0.0005345066892914474,-0.0009926552884280682,0.00007635809743078426
1659103349933498600,8.60749853515625,-0.0005345066892914474,-0.0006872228696011007,0.00007635809743078426
1659103349943169800,8.617169677734376,-0.000839939049910754,-0.0006872228696011007,0.00038179047987796366
1659103349952841000,8.626841064453124,-0.000839939049910754,-0.00038179047987796366,0.0006872228696011007
1659103349962512000,8.636511962890625,-0.0005345066892914474,-0.0009926552884280682,0.00007635809743078426
1659103349972183000,8.64618310546875,-0.0005345066892914474,-0.0006872228696011007,0.00007635809743078426
1659103349981854000,8.65585400390625,-0.00022907429956831038,-0.00038179047987796366,0.00038179047987796366
1659103349991525000,8.665525146484375,-0.000839939049910754,-0.0006872228696011007,-0.0011453714687377214
1659103350001196000,8.675196044921876,-0.0011453714687377214,-0.0006872228696011007,0.0009926552884280682
1659103350010867200,8.6848671875,-0.0011453714687377214,-0.00038179047987796366,-0.00022907429956831038
1659103350020538000,8.6945380859375,-0.0011453714687377214,-0.00038179047987796366,-0.000839939049910754
1659103350030209300,8.704209228515625,-0.000839939049910754,-0.0009926552884280682,-0.00022907429956831038
1659103350039880400,8.71388037109375,-0.0011453714687377214,-0.00038179047987796366,0.00007635809743078426
1659103350049551400,8.72355126953125,-0.0011453714687377214,-0.0009926552884280682,0.00007635809743078426
1659103350059222500,8.733222412109376,-0.0011453714687377214,-0.0006872228696011007,0.00007635809743078426
1659103350068893400,8.7428935546875,-0.000839939049910754,-0.0012980876490473747,0.0016035200096666813
1659103350078564600,8.752564697265624,-0.001450803829357028,-0.0009926552884280682,0.00038179047987796366
1659103350088235800,8.76223583984375,-0.0005345066892914474,-0.0006872228696011007,0.0009926552884280682
1659103350097906700,8.77190673828125,-0.0005345066892914474,-0.00038179047987796366,0.00007635809743078426
1659103350107577900,8.781577880859375,-0.001450803829357028,-0.00038179047987796366,-0.00022907429956831038
1659103350117248800,8.791248779296875,-0.0011453714687377214,-0.0009926552884280682,0.0009926552884280682
1659103350126920000,8.800919921875,-0.0005345066892914474,-0.00007635809743078426,0.00038179047987796366
1659103350136591000,8.810591064453124,-0.000839939049910754,-0.0009926552884280682,-0.00022907429956831038
1659103350146262000,8.820261962890624,-0.0011453714687377214,-0.00038179047987796366,0.0009926552884280682
1659103350155933200,8.82993310546875,-0.000839939049910754,-0.0006872228696011007,-0.00022907429956831038
1659103350165604400,8.839604248046875,-0.0011453714687377214,-0.0009926552884280682,0.0012980876490473747
1659103350175275300,8.849275146484375,-0.000839939049910754,-0.0009926552884280682,0.00038179047987796366
1659103350184946400,8.858946533203126,-0.000839939049910754,-0.0006872228696011007,0.00038179047987796366
1659103350194617300,8.868617431640626,-0.00022907429956831038,-0.0012980876490473747,0.00007635809743078426
1659103350204288500,8.87828857421875,-0.0011453714687377214,-0.0012980876490473747,0.0006872228696011007
1659103350213959700,8.887959716796875,-0.000839939049910754,-0.0009926552884280682,0.00007635809743078426
1659103350223630600,8.897630615234375,-0.0005345066892914474,-0.0006872228696011007,-0.000839939049910754
1659103350233301800,8.9073017578125,-0.0017562361899763346,-0.0009926552884280682,0.00007635809743078426
1659103350242973000,8.916972900390626,-0.000839939049910754,-0.0009926552884280682,-0.000839939049910754
1659103350252643800,8.926643798828126,-0.0005345066892914474,-0.0012980876490473747,-0.000839939049910754
1659103350262315000,8.93631494140625,-0.000839939049910754,-0.0009926552884280682,0.00007635809743078426
1659103350271986000,8.94598583984375,-0.000839939049910754,-0.0009926552884280682,0.0006872228696011007
1659103350281657000,8.955656982421875,-0.000839939049910754,-0.0006872228696011007,-0.00022907429956831038
1659103350291328300,8.965328369140625,-0.0011453714687377214,-0.0009926552884280682,0.0012980876490473747
1659103350300999200,8.974999267578125,-0.0005345066892914474,-0.00038179047987796366,0.00038179047987796366
1659103350310670300,8.98467041015625,-0.000839939049910754,-0.0012980876490473747,0.00038179047987796366
1659103350320341200,8.99434130859375,-0.0011453714687377214,-0.00038179047987796366,0.0006872228696011007
1659103350330012400,9.004012451171874,-0.0011453714687377214,-0.0006872228696011007,-0.0005345066892914474
1659103350339683300,9.013683349609375,-0.000839939049910754,-0.00038179047987796366,-0.0011453714687377214
1659103350349354500,9.0233544921875,-0.0011453714687377214,-0.0006872228696011007,0.00007635809743078426
1659103350359025700,9.033025634765625,-0.000839939049910754,-0.0006872228696011007,0.00038179047987796366
1659103350368696600,9.042696533203125,-0.0011453714687377214,-0.0009926552884280682,-0.0005345066892914474
1659103350378367700,9.05236767578125,-0.0005345066892914474,-0.00038179047987796366,-0.001450803829357028
1659103350388038700,9.06203857421875,0.00007635809743078426,-0.0009926552884280682,0.0012980876490473747
1659103350397709800,9.071709716796875,-0.00022907429956831038,-0.00007635809743078426,-0.00022907429956831038
1659103350407381000,9.081381103515625,-0.0005345066892914474,-0.0009926552884280682,0.00007635809743078426
1659103350417052000,9.091052001953125,-0.0005345066892914474,-0.0009926552884280682,0.00038179047987796366
1659103350426723000,9.10072314453125,0.00007635809743078426,-0.0006872228696011007,0.00038179047987796366
1659103350436394200,9.110394287109376,-0.000839939049910754,-0.0009926552884280682,-0.0005345066892914474
1659103350446065200,9.120065185546874,-0.0011453714687377214,-0.0006872228696011007,0.00038179047987796366
1659103350455736300,9.129736328125,-0.0005345066892914474,-0.0006872228696011007,-0.0005345066892914474
1659103350465407500,9.139407470703125,-0.0005345066892914474,-0.0006872228696011007,-0.00022907429956831038
1659103350475078400,9.149078369140625,-0.001450803829357028,-0.00038179047987796366,0.0006872228696011007
1659103350484749600,9.15874951171875,-0.0011453714687377214,-0.00038179047987796366,-0.00022907429956831038
1659103350494420500,9.16842041015625,-0.00022907429956831038,-0.00007635809743078426,0.00038179047987796366
1659103350504091600,9.178091552734376,-0.0005345066892914474,0.00022907429956831038,0.0016035200096666813
1659103350513762800,9.1877626953125,-0.0011453714687377214,-0.0009926552884280682,-0.00022907429956831038
1659103350523433700,9.197433837890625,-0.0005345066892914474,-0.0012980876490473747,0.0016035200096666813
1659103350533105000,9.20710498046875,-0.000839939049910754,-0.00038179047987796366,-0.00022907429956831038
1659103350542776000,9.216776123046875,-0.00022907429956831038,-0.00007635809743078426,-0.0005345066892914474
1659103350552447000,9.226447021484375,-0.000839939049910754,-0.00038179047987796366,-0.0005345066892914474
1659103350562118100,9.2361181640625,-0.000839939049910754,-0.0006872228696011007,-0.0011453714687377214
1659103350571789000,9.2457890625,-0.0005345066892914474,-0.00038179047987796366,-0.00022907429956831038
1659103350581460200,9.255460205078125,-0.00022907429956831038,-0.0009926552884280682,-0.0005345066892914474
1659103350591131100,9.265131103515625,-0.00022907429956831038,-0.00007635809743078426,-0.00022907429956831038
1659103350600802300,9.27480224609375,-0.0011453714687377214,-0.00007635809743078426,-0.00022907429956831038
1659103350610473500,9.284473388671875,-0.000839939049910754,-0.0009926552884280682,0.00007635809743078426
1659103350620144400,9.294144287109376,-0.0011453714687377214,-0.00038179047987796366,-0.0005345066892914474
1659103350629815600,9.303815673828124,-0.0011453714687377214,-0.00007635809743078426,0.0009926552884280682
1659103350639486500,9.313486572265624,-0.0005345066892914474,-0.0009926552884280682,0.0006872228696011007
1659103350649157600,9.32315771484375,-0.00022907429956831038,-0.0006872228696011007,-0.0005345066892914474
1659103350658828800,9.332828857421875,-0.0011453714687377214,-0.0012980876490473747,0.0019089524867013097
1659103350668499700,9.342499755859375,-0.0005345066892914474,-0.0012980876490473747,0.0016035200096666813
1659103350678171000,9.3521708984375,-0.0011453714687377214,-0.0006872228696011007,0.00038179047987796366
1659103350687842000,9.361842041015626,-0.0011453714687377214,-0.0019089524867013097,0.00007635809743078426
1659103350697513000,9.371512939453124,-0.000839939049910754,-0.0009926552884280682,-0.00022907429956831038
1659103350707184000,9.38118408203125,-0.000839939049910754,-0.0012980876490473747,0.00038179047987796366
1659103350716855300,9.390855224609375,-0.00022907429956831038,-0.0009926552884280682,0.00007635809743078426
1659103350726526200,9.400526123046875,-0.0005345066892914474,-0.0009926552884280682,-0.0005345066892914474
1659103350736197400,9.410197265625,-0.001450803829357028,-0.00038179047987796366,-0.00022907429956831038
1659103350745868500,9.41986865234375,-0.001450803829357028,-0.0006872228696011007,-0.00022907429956831038
1659103350755539500,9.42953955078125,-0.0005345066892914474,-0.0006872228696011007,0.00007635809743078426
1659103350765210600,9.439210693359374,-0.000839939049910754,-0.00038179047987796366,-0.00022907429956831038
1659103350774881500,9.448881591796875,-0.0011453714687377214,-0.0006872228696011007,-0.000839939049910754
1659103350784552700,9.458552734375,-0.0011453714687377214,-0.00007635809743078426,-0.0005345066892914474
1659103350794223900,9.468223876953125,-0.0005345066892914474,-0.0009926552884280682,-0.00022907429956831038
1659103350803894800,9.477894775390626,-0.0005345066892914474,-0.0006872228696011007,0.0006872228696011007
1659103350813566000,9.48756591796875,-0.000839939049910754,-0.00038179047987796366,0.00038179047987796366
1659103350823236900,9.49723681640625,-0.0011453714687377214,-0.00038179047987796366,0.00007635809743078426
1659103350832908000,9.506907958984375,-0.0005345066892914474,-0.00038179047987796366,-0.000839939049910754
1659103350842579000,9.516578857421875,-0.00022907429956831038,-0.0012980876490473747,0.00007635809743078426
1659103350852250000,9.52625,-0.0011453714687377214,-0.0006872228696011007,-0.000839939049910754
1659103350861921300,9.53592138671875,-0.0005345066892914474,-0.0006872228696011007,0.00007635809743078426
1659103350871592200,9.54559228515625,-0.0005345066892914474,-0.0009926552884280682,-0.00022907429956831038
1659103350881263400,9.555263427734374,-0.0005345066892914474,-0.0006872228696011007,-0.000839939049910754
1659103350890934500,9.5649345703125,-0.00022907429956831038,-0.0009926552884280682,0.0009926552884280682
1659103350900605400,9.57460546875,-0.00022907429956831038,-0.00038179047987796366,-0.0005345066892914474
1659103350910276600,9.584276611328125,-0.0011453714687377214,-0.0012980876490473747,0.00007635809743078426
1659103350919947800,9.59394775390625,-0.0005345066892914474,-0.00007635809743078426,-0.00022907429956831038
1659103350929618700,9.60361865234375,-0.0005345066892914474,-0.0016035200096666813,0.00007635809743078426
1659103350939289900,9.613289794921876,-0.0005345066892914474,-0.0009926552884280682,-0.0005345066892914474
1659103350948961000,9.6229609375,-0.001450803829357028,-0.00007635809743078426,-0.00022907429956831038
1659103350958632000,9.6326318359375,-0.000839939049910754,-0.00038179047987796366,-0.001450803829357028
1659103350968303000,9.64230322265625,-0.0011453714687377214,-0.00038179047987796366,-0.000839939049910754
1659103350977974300,9.651974365234375,-0.0011453714687377214,0.00022907429956831038,0.0006872228696011007
1659103350987645200,9.661645263671875,-0.0017562361899763346,-0.0006872228696011007,-0.000839939049910754
1659103350997316400,9.67131640625,-0.000839939049910754,-0.0009926552884280682,-0.00022907429956831038
1659103351006987500,9.680987548828124,-0.00022907429956831038,-0.0006872228696011007,0.00007635809743078426
1659103351016658400,9.690658447265625,-0.0011453714687377214,-0.0012980876490473747,0.00007635809743078426
1659103351026329600,9.70032958984375,-0.0011453714687377214,-0.0009926552884280682,-0.000839939049910754
1659103351036000500,9.71000048828125,-0.00022907429956831038,-0.0009926552884280682,0.00007635809743078426
1659103351045671700,9.719671630859375,-0.0005345066892914474,-0.0006872228696011007,0.0006872228696011007
1659103351055342600,9.729342529296876,-0.0011453714687377214,-0.0012980876490473747,0.00007635809743078426
1659103351065013800,9.739013671875,-0.0005345066892914474,-0.0009926552884280682,-0.0005345066892914474
1659103351074685000,9.748684814453124,-0.00022907429956831038,-0.00007635809743078426,-0.000839939049910754
1659103351084355800,9.75835595703125,-0.0005345066892914474,-0.00038179047987796366,-0.0005345066892914474
1659103351094027000,9.768027099609375,-0.001450803829357028,-0.00038179047987796366,-0.000839939049910754
1659103351103698200,9.7776982421875,-0.0011453714687377214,-0.0006872228696011007,0.00007635809743078426
1659103351113369000,9.787369140625,-0.001450803829357028,-0.00007635809743078426,0.00007635809743078426
1659103351123040300,9.797040283203126,-0.000839939049910754,-0.00038179047987796366,0.0006872228696011007
1659103351132711400,9.80671142578125,-0.000839939049910754,-0.0006872228696011007,-0.00022907429956831038
1659103351142382300,9.81638232421875,-0.001450803829357028,-0.0012980876490473747,0.0006872228696011007
1659103351152053500,9.826053466796875,-0.00022907429956831038,-0.0006872228696011007,0.0012980876490473747
1659103351161724700,9.835724609375,-0.000839939049910754,-0.00007635809743078426,0.00038179047987796366
1659103351171395600,9.8453955078125,-0.0005345066892914474,-0.0006872228696011007,0.0006872228696011007
1659103351181066800,9.855066650390626,-0.0005345066892914474,-0.0006872228696011007,0.0006872228696011007
1659103351190738000,9.864738037109374,-0.000839939049910754,-0.0009926552884280682,0.00007635809743078426
1659103351200408800,9.874408935546874,-0.001450803829357028,-0.00038179047987796366,0.00007635809743078426
1659103351210080000,9.884080078125,-0.00022907429956831038,-0.0009926552884280682,-0.00022907429956831038
1659103351219751200,9.893751220703125,-0.000839939049910754,-0.0012980876490473747,0.00038179047987796366
1659103351229422000,9.903422119140625,-0.0005345066892914474,-0.00007635809743078426,-0.001450803829357028
1659103351239093200,9.91309326171875,-0.0005345066892914474,-0.00038179047987796366,-0.00022907429956831038
1659103351248764200,9.92276416015625,-0.0011453714687377214,-0.0016035200096666813,0.0006872228696011007
1659103351258435300,9.932435302734374,-0.000839939049910754,-0.00038179047987796366,-0.000839939049910754
1659103351268106200,9.942106201171875,-0.0005345066892914474,-0.0006872228696011007,-0.00022907429956831038
1659103351277777400,9.95177734375,-0.0011453714687377214,-0.0006872228696011007,-0.0011453714687377214
1659103351287448600,9.961448486328125,-0.0011453714687377214,-0.0012980876490473747,0.0009926552884280682
1659103351297119500,9.971119384765625,-0.0005345066892914474,-0.0006872228696011007,0.00038179047987796366
1659103351306790700,9.980790771484376,-0.00022907429956831038,-0.0006872228696011007,-0.000839939049910754
1659103351316461800,9.9904619140625,-0.001450803829357028,-0.0006872228696011007,-0.00022907429956831038
1659103351326132700,10.0001328125,-0.000839939049910754,-0.0006872228696011007,-0.00022907429956831038
1659103351335804000,10.009803955078125,0.00007635809743078426,-0.0006872228696011007,-0.00022907429956831038
1659103351345475000,10.01947509765625,-0.0011453714687377214,-0.0006872228696011007,0.00007635809743078426
1659103351355146000,10.02914599609375,-0.0011453714687377214,-0.0009926552884280682,0.00038179047987796366
1659103351364817200,10.038817138671876,-0.001450803829357028,-0.0006872228696011007,-0.0011453714687377214
1659103351374488300,10.04848828125,-0.0005345066892914474,-0.0006872228696011007,-0.00022907429956831038
1659103351384159200,10.0581591796875,-0.0005345066892914474,-0.0009926552884280682,0.00007635809743078426
1659103351393830400,10.067830322265625,-0.001450803829357028,-0.0009926552884280682,0.0009926552884280682
1659103351403501600,10.07750146484375,-0.001450803829357028,-0.0006872228696011007,0.00038179047987796366
1659103351413172500,10.08717236328125,-0.0005345066892914474,-0.00038179047987796366,-0.0005345066892914474
1659103351422843600,10.09684375,-0.0011453714687377214,-0.0006872228696011007,0.00038179047987796366
1659103351432514800,10.106514892578126,-0.00022907429956831038,-0.00038179047987796366,0.00038179047987796366
1659103351442185700,10.116185791015624,-0.0005345066892914474,-0.0006872228696011007,0.0006872228696011007
1659103351451857000,10.12585693359375,-0.0011453714687377214,-0.0009926552884280682,0.00007635809743078426
1659103351461527800,10.13552783203125,-0.000839939049910754,-0.0006872228696011007,0.00038179047987796366
1659103351471199000,10.145198974609375,-0.001450803829357028,-0.0009926552884280682,0.0006872228696011007
1659103351480870000,10.154869873046875,-0.0011453714687377214,-0.0006872228696011007,-0.000839939049910754
1659103351490541000,10.164541015625,-0.0017562361899763346,-0.0006872228696011007,0.0009926552884280682
1659103351500212200,10.174212158203124,-0.000839939049910754,-0.0009926552884280682,-0.00022907429956831038
1659103351509883100,10.183883056640624,-0.001450803829357028,-0.0009926552884280682,-0.000839939049910754
1659103351519554300,10.19355419921875,-0.00022907429956831038,-0.00038179047987796366,0.00038179047987796366
1659103351529225500,10.2032255859375,-0.000839939049910754,-0.0006872228696011007,0.00007635809743078426
1659103351538896400,10.212896484375,-0.00022907429956831038,-0.0006872228696011007,0.00038179047987796366
1659103351548567600,10.222567626953126,-0.0005345066892914474,-0.0006872228696011007,0.00007635809743078426
1659103351558238700,10.23223876953125,-0.0005345066892914474,-0.00038179047987796366,-0.0011453714687377214
1659103351567909600,10.24190966796875,-0.00022907429956831038,-0.0006872228696011007,-0.0005345066892914474
1659103351577580800,10.251580810546875,-0.00022907429956831038,-0.0006872228696011007,-0.00022907429956831038
1659103351587252000,10.261251953125,-0.0011453714687377214,-0.0006872228696011007,0.0006872228696011007
1659103351596923000,10.2709228515625,-0.000839939049910754,-0.00038179047987796366,-0.0005345066892914474
1659103351606594000,10.280593994140625,-0.000839939049910754,-0.0009926552884280682,0.00007635809743078426
1659103351616265200,10.29026513671875,-0.0011453714687377214,-0.0009926552884280682,-0.0005345066892914474
1659103351625936100,10.29993603515625,-0.000839939049910754,-0.0006872228696011007,-0.00022907429956831038
1659103351635607300,10.309607177734375,-0.0011453714687377214,-0.0006872228696011007,-0.00022907429956831038
1659103351645278500,10.319278564453125,-0.0005345066892914474,-0.0009926552884280682,-0.000839939049910754
1659103351654949400,10.328949462890625,-0.0011453714687377214,-0.0006872228696011007,0.0006872228696011007
1659103351664620500,10.33862060546875,-0.0011453714687377214,-0.0006872228696011007,0.0009926552884280682
1659103351674291500,10.34829150390625,-0.000839939049910754,-0.0006872228696011007,-0.000839939049910754
1659103351683962600,10.357962646484374,-0.00022907429956831038,-0.0009926552884280682,-0.00022907429956831038
1659103351693633800,10.3676337890625,-0.00022907429956831038,-0.00038179047987796366,-0.000839939049910754
1659103351703304700,10.3773046875,-0.000839939049910754,-0.0012980876490473747,-0.0005345066892914474
1659103351712976000,10.386975830078125,-0.000839939049910754,-0.0006872228696011007,0.00007635809743078426
1659103351722647000,10.39664697265625,-0.000839939049910754,-0.00038179047987796366,0.0006872228696011007
1659103351732318000,10.40631787109375,-0.000839939049910754,-0.0009926552884280682,0.00007635809743078426
1659103351741989000,10.415989013671876,-0.000839939049910754,-0.0006872228696011007,-0.00022907429956831038
1659103351751660300,10.425660400390624,-0.0011453714687377214,-0.0006872228696011007,-0.0005345066892914474
1659103351761331200,10.435331298828125,-0.000839939049910754,-0.0012980876490473747,0.00038179047987796366
1659103351771002400,10.44500244140625,-0.000839939049910754,-0.0012980876490473747,0.00007635809743078426
1659103351780673500,10.454673583984375,-0.000839939049910754,-0.0012980876490473747,0.00007635809743078426
1659103351790344700,10.4643447265625,-0.000839939049910754,-0.0016035200096666813,0.00007635809743078426
1659103351800015600,10.474015625,-0.000839939049910754,-0.0006872228696011007,-0.00022907429956831038
1659103351809686800,10.483686767578124,-0.000839939049910754,-0.00038179047987796366,-0.0005345066892914474
1659103351819357700,10.493357666015624,-0.0011453714687377214,-0.0006872228696011007,-0.0005345066892914474
1659103351829028900,10.50302880859375,-0.000839939049910754,-0.0012980876490473747,-0.00022907429956831038
1659103351838700000,10.512699951171875,-0.0011453714687377214,-0.0006872228696011007,-0.000839939049910754
1659103351848371000,10.522370849609375,-0.0011453714687377214,-0.0006872228696011007,-0.0005345066892914474
1659103351858042000,10.5320419921875,-0.00022907429956831038,-0.0006872228696011007,0.0016035200096666813
1659103351867713000,10.541713134765626,-0.00022907429956831038,-0.0009926552884280682,0.00007635809743078426
1659103351877384200,10.55138427734375,0.00038179047987796366,-0.0012980876490473747,-0.00022907429956831038
1659103351887055400,10.561055419921875,-0.000839939049910754,-0.0006872228696011007,-0.000839939049910754
1659103351896726300,10.570726318359375,0.00007635809743078426,-0.0006872228696011007,0.00038179047987796366
1659103351906397400,10.5803974609375,-0.00022907429956831038,-0.0006872228696011007,0.00007635809743078426
1659103351916068600,10.590068603515626,-0.00022907429956831038,-0.0006872228696011007,-0.00022907429956831038
1659103351925739800,10.59973974609375,-0.0005345066892914474,-0.0009926552884280682,0.00007635809743078426
1659103351935410700,10.60941064453125,-0.000839939049910754,-0.0006872228696011007,0.00038179047987796366
1659103351945081900,10.619081787109375,-0.00022907429956831038,-0.0006872228696011007,-0.00022907429956831038
1659103351954753000,10.6287529296875,-0.0011453714687377214,-0.00038179047987796366,0.00007635809743078426
1659103351964424000,10.638423828125,-0.0005345066892914474,-0.0009926552884280682,0.0016035200096666813
1659103351974095000,10.64809521484375,-0.0005345066892914474,-0.0009926552884280682,0.00038179047987796366
1659103351983766300,10.657766357421876,-0.0005345066892914474,-0.00038179047987796366,-0.00022907429956831038
1659103351993437200,10.667437255859374,-0.0005345066892914474,-0.0006872228696011007,-0.00022907429956831038
1659103352003108400,10.6771083984375,-0.00022907429956831038,-0.00007635809743078426,0.00007635809743078426
1659103352012779300,10.686779296875,-0.000839939049910754,-0.00007635809743078426,0.00007635809743078426
1659103352022450400,10.696450439453125,-0.000839939049910754,-0.0006872228696011007,0.0006872228696011007
1659103352032121600,10.70612158203125,-0.000839939049910754,-0.00007635809743078426,0.00007635809743078426
1659103352041792500,10.71579248046875,-0.0005345066892914474,-0.0006872228696011007,0.00007635809743078426
1659103352051463700,10.725463623046876,-0.0011453714687377214,-0.00038179047987796366,0.0009926552884280682
1659103352061134800,10.735134765625,-0.0011453714687377214,-0.0009926552884280682,0.00007635809743078426
1659103352070805800,10.7448056640625,-0.000839939049910754,-0.0006872228696011007,0.0009926552884280682
1659103352080477000,10.754476806640625,-0.0011453714687377214,-0.0006872228696011007,0.00007635809743078426
1659103352090148000,10.764148193359375,-0.0011453714687377214,-0.0006872228696011007,0.00007635809743078426
1659103352099819000,10.773819091796875,-0.0011453714687377214,-0.0006872228696011007,-0.0005345066892914474
1659103352109490200,10.783490234375,-0.0011453714687377214,-0.00007635809743078426,0.00007635809743078426
1659103352119161300,10.793161376953124,-0.0011453714687377214,-0.0006872228696011007,0.00038179047987796366
1659103352128832300,10.802832275390625,-0.0005345066892914474,-0.0006872228696011007,-0.00022907429956831038
1659103352138503400,10.81250341796875,-0.00022907429956831038,-0.0006872228696011007,-0.0005345066892914474
1659103352148174600,10.822174560546875,-0.000839939049910754,-0.0006872228696011007,0.00007635809743078426
1659103352157845500,10.831845458984375,0.00007635809743078426,-0.00038179047987796366,-0.00022907429956831038
1659103352167516700,10.8415166015625,-0.000839939049910754,-0.00038179047987796366,-0.00022907429956831038
1659103352177187800,10.851187744140624,-0.0005345066892914474,-0.00038179047987796366,0.00038179047987796366
1659103352186858800,10.860858642578124,-0.0005345066892914474,-0.00038179047987796366,-0.00022907429956831038
1659103352196530000,10.870530029296875,-0.000839939049910754,-0.0012980876490473747,-0.001450803829357028
1659103352206200800,10.880200927734375,-0.0011453714687377214,-0.0012980876490473747,-0.00022907429956831038
1659103352215872000,10.8898720703125,-0.000839939049910754,-0.0006872228696011007,0.0012980876490473747
1659103352225543200,10.899543212890626,-0.000839939049910754,-0.0006872228696011007,-0.0005345066892914474
1659103352235214000,10.909214111328126,-0.0005345066892914474,-0.0006872228696011007,-0.00022907429956831038
1659103352244885200,10.91888525390625,-0.001450803829357028,-0.0006872228696011007,-0.0005345066892914474
1659103352254556400,10.928556396484375,-0.000839939049910754,-0.0006872228696011007,-0.00022907429956831038
1659103352264227300,10.938227294921875,-0.0005345066892914474,-0.00038179047987796366,0.00007635809743078426
1659103352273898500,10.9478984375,-0.0011453714687377214,-0.0006872228696011007,0.00007635809743078426
1659103352283569700,10.957569580078125,-0.000839939049910754,-0.0009926552884280682,0.00007635809743078426
1659103352293240800,10.96724072265625,-0.0011453714687377214,-0.0009926552884280682,0.0009926552884280682
1659103352302911700,10.976911865234374,-0.0011453714687377214,-0.0012980876490473747,-0.00022907429956831038
1659103352312583000,10.9865830078125,-0.0011453714687377214,-0.00038179047987796366,-0.0005345066892914474
