time,seconds_elapsed,z,y,x
1659103341427923000,0.1019228515625,-244.40626525878906,1117.63134765625,67.10625457763672
1659103341437923000,0.111923095703125,-244.1437530517578,1118.0438232421875,66.69375610351562
1659103341447923000,0.1219228515625,-244.10626220703125,1118.53125,65.79375457763672
1659103341457923000,0.131923095703125,-244.27500915527344,1118.9813232421875,65.53125
1659103341467923000,0.1419228515625,-244.08750915527344,1119.50634765625,65.71875
1659103341477923000,0.151923095703125,-243.91876220703125,1119.5625,65.53125
1659103341487923000,0.1619228515625,-244.21876525878906,1119.1875,65.79375457763672
1659103341497923000,0.171923095703125,-244.44375610351562,1118.7750244140625,66.0562515258789
1659103341507923000,0.1819228515625,-244.38751220703125,1119.0562744140625,65.64375305175781
1659103341517923000,0.191923095703125,-244.38751220703125,1119.2437744140625,65.60625457763672
1659103341527923000,0.2019228515625,-244.27500915527344,1119.1875,65.625
1659103341537923000,0.211923095703125,-244.16250610351562,1118.94384765625,65.79375457763672
1659103341547923000,0.2219228515625,-244.1437530517578,1118.5875244140625,65.53125
1659103341557923000,0.231923095703125,-244.20001220703125,1118.56884765625,65.6812515258789
1659103341567923000,0.2419228515625,-244.12501525878906,1118.5875244140625,65.23125457763672
1659103341577923000,0.251923095703125,-243.7687530517578,1118.6812744140625,65.04375457763672
1659103341587923000,0.2619228515625,-243.80625915527344,1118.643798828125,65.38125610351562
1659103341597923000,0.271923095703125,-243.61875915527344,1118.737548828125,65.26875305175781
1659103341607923000,0.2819228515625,-243.61875915527344,1118.8687744140625,65.36250305175781
1659103341617923000,0.291923095703125,-243.73126220703125,1119.112548828125,65.1187515258789
1659103341627923000,0.3019228515625,-243.71250915527344,1119.22509765625,65.10000610351562
1659103341637923000,0.311923095703125,-243.90000915527344,1118.7000732421875,64.6500015258789
1659103341647923000,0.3219228515625,-243.50625610351562,1119.018798828125,64.76250457763672
1659103341657923000,0.331923095703125,-243.61875915527344,1119.31884765625,64.53750610351562
1659103341667923000,0.3419228515625,-243.50625610351562,1119.375,64.48125457763672
1659103341677923000,0.351923095703125,-243.63751220703125,1119.1500244140625,64.44375610351562
1659103341687923000,0.3619228515625,-243.61875915527344,1119.13134765625,64.38750457763672
1659103341697923000,0.371923095703125,-243.3937530517578,1119.0750732421875,64.44375610351562
1659103341707923000,0.3819228515625,-243.61875915527344,1119.018798828125,64.5
1659103341717923000,0.391923095703125,-243.43125915527344,1119.60009765625,65.10000610351562
1659103341727923000,0.4019228515625,-243.63751220703125,1119.1688232421875,65.64375305175781
1659103341737923000,0.411923095703125,-243.6750030517578,1119.1500244140625,65.625
1659103341747923000,0.4219228515625,-243.8625030517578,1119.1688232421875,65.36250305175781
1659103341757923000,0.431923095703125,-243.8625030517578,1119.22509765625,65.32500457763672
1659103341767923000,0.4419228515625,-243.99375915527344,1119.1688232421875,65.45625305175781
1659103341777923000,0.451923095703125,-243.9562530517578,1119.13134765625,65.3062515258789
1659103341787923000,0.4619228515625,-243.73126220703125,1119.018798828125,65.13750457763672
1659103341797923000,0.471923095703125,-243.78750610351562,1118.71875,65.13750457763672
1659103341807923000,0.4819228515625,-243.84376525878906,1119.0750732421875,64.76250457763672
1659103341817923000,0.491923095703125,-243.6750030517578,1119.28125,64.78125
1659103341827923000,0.5019228515625,-243.46876525878906,1119.4312744140625,65.10000610351562
1659103341837923000,0.511923095703125,-243.52500915527344,1119.7125244140625,65.19375610351562
1659103341847923000,0.5219228515625,-243.6750030517578,1119.8250732421875,65.08125305175781
1659103341857923000,0.531923095703125,-243.60000610351562,1119.3563232421875,65.64375305175781
1659103341867923000,0.5419228515625,-243.60000610351562,1119.31884765625,65.88750457763672
1659103341877923000,0.551923095703125,-243.52500915527344,1119.69384765625,65.625
1659103341887923000,0.5619228515625,-243.35626220703125,1119.8250732421875,65.5875015258789
1659103341897923000,0.571923095703125,-243.3937530517578,1119.7313232421875,65.5875015258789
1659103341907923000,0.5819228515625,-243.18751525878906,1119.5250244140625,65.4000015258789
1659103341917923000,0.591923095703125,-243.07501220703125,1119.2625732421875,65.625
1659103341927923000,0.6019228515625,-242.8312530517578,1118.9813232421875,65.3062515258789
1659103341937923000,0.611923095703125,-243.35626220703125,1119.13134765625,65.25
1659103341947923000,0.6219228515625,-243.41250610351562,1119.3375244140625,65.17500305175781
1659103341957923000,0.631923095703125,-243.35626220703125,1119.300048828125,65.1187515258789
1659103341967923000,0.6419228515625,-243.61875915527344,1119.3563232421875,65.0250015258789
1659103341977923000,0.651923095703125,-243.63751220703125,1119.4312744140625,65.10000610351562
1659103341987923000,0.6619228515625,-243.73126220703125,1119.4312744140625,64.89375305175781
1659103341997923000,0.671923095703125,-243.71250915527344,1119.6375732421875,64.59375
1659103342007923000,0.6819228515625,-243.5812530517578,1119.65625,64.95000457763672
1659103342017923000,0.691923095703125,-243.33750915527344,1119.956298828125,64.81875610351562
1659103342027923000,0.7019228515625,-243.09376525878906,1119.9937744140625,64.95000457763672
1659103342037923000,0.711923095703125,-243.03750610351562,1119.65625,64.85625457763672
1659103342047923000,0.7219228515625,-242.70001220703125,1119.375,64.63125610351562
1659103342057923000,0.731923095703125,-242.60626220703125,1119.09375,64.38750457763672
1659103342067923000,0.7419228515625,-242.7375030517578,1119.0562744140625,64.35000610351562
1659103342077923000,0.751923095703125,-242.8312530517578,1118.7750244140625,64.33125305175781
1659103342087923000,0.7619228515625,-243.07501220703125,1119,64.40625
1659103342097923000,0.771923095703125,-243.00001525878906,1118.9625244140625,64.16250610351562
1659103342107923000,0.7819228515625,-243.24375915527344,1118.8125,63.88125228881836
1659103342117923000,0.791923095703125,-243.46876525878906,1119.0562744140625,63.97500228881836
1659103342127923000,0.8019228515625,-243.65626525878906,1119.13134765625,64.35000610351562
1659103342137923000,0.811923095703125,-243.90000915527344,1119.41259765625,64.59375
1659103342147923000,0.8219228515625,-243.99375915527344,1119.1500244140625,64.95000457763672
1659103342157923000,0.831923095703125,-243.91876220703125,1119.2625732421875,64.8375015258789
1659103342167923000,0.8419228515625,-243.73126220703125,1119.1500244140625,64.70625305175781
1659103342177923000,0.851923095703125,-243.54376220703125,1119.2437744140625,64.63125610351562
1659103342187923000,0.8619228515625,-243.3937530517578,1119.22509765625,64.85625457763672
1659103342197923000,0.871923095703125,-243.31875610351562,1119.1875,64.91250610351562
1659103342207923000,0.8819228515625,-243.2062530517578,1119.2625732421875,64.7437515258789
1659103342217923000,0.891923095703125,-243.15000915527344,1119.0562744140625,64.8375015258789
1659103342227923000,0.9019228515625,-242.81251525878906,1119.31884765625,64.6875
1659103342237923000,0.911923095703125,-242.66250610351562,1119.2437744140625,64.875
1659103342247923000,0.9219228515625,-242.75625610351562,1119.2437744140625,64.91250610351562
1659103342257923000,0.931923095703125,-243.05625915527344,1119.300048828125,64.875
1659103342267923000,0.9419228515625,-243.16876220703125,1119.60009765625,64.78125
1659103342277923000,0.951923095703125,-243.03750610351562,1119.78759765625,64.875
1659103342287923000,0.9619228515625,-243.07501220703125,1119.69384765625,64.875
1659103342297923000,0.971923095703125,-243.1125030517578,1119.7125244140625,64.78125
1659103342307923000,0.9819228515625,-243.22500610351562,1119.5250244140625,64.76250457763672
1659103342317923000,0.991923095703125,-243.1125030517578,1119.7125244140625,64.7437515258789
1659103342327923000,1.0019228515625,-242.85000610351562,1119.768798828125,64.96875
1659103342337923000,1.011923095703125,-242.5500030517578,1119.84375,65.26875305175781
1659103342347923000,1.0219228515625,-242.6437530517578,1119.65625,65.45625305175781
1659103342357923000,1.031923095703125,-242.88751220703125,1119,65.28750610351562
1659103342367923000,1.0419228515625,-242.85000610351562,1119.03759765625,65.25
1659103342377923000,1.051923095703125,-242.70001220703125,1119.13134765625,65.15625
1659103342387923000,1.0619228515625,-242.51251220703125,1119.3563232421875,65.08125305175781
1659103342397923000,1.071923095703125,-242.66250610351562,1119.300048828125,64.98750305175781
1659103342407923000,1.0819228515625,-242.88751220703125,1119.3375244140625,64.98750305175781
1659103342417923000,1.091923095703125,-243.1125030517578,1119.3563232421875,65.0250015258789
1659103342427923000,1.1019228515625,-243.28126525878906,1119.0750732421875,65.1187515258789
1659103342437923000,1.111923095703125,-243.26251220703125,1119.4312744140625,65.15625
1659103342447923000,1.1219228515625,-243.28126525878906,1119.581298828125,65.19375610351562
1659103342457923000,1.131923095703125,-243.3000030517578,1119.4312744140625,65.34375
1659103342467923000,1.1419228515625,-243.43125915527344,1119.4312744140625,65.4375
1659103342477923000,1.151923095703125,-243.46876525878906,1119.4312744140625,65.4000015258789
1659103342487923000,1.1619228515625,-243.37501525878906,1119.375,65.26875305175781
1659103342497923000,1.171923095703125,-243.3000030517578,1119.1688232421875,65.38125610351562
1659103342507923000,1.1819228515625,-243.28126525878906,1119.1688232421875,64.98750305175781
1659103342517923000,1.191923095703125,-243.61875915527344,1118.8875732421875,65.0625
1659103342527923000,1.2019228515625,-243.69375610351562,1118.8125,65.04375457763672
1659103342537923000,1.211923095703125,-243.71250915527344,1118.925048828125,65.0250015258789
1659103342547923000,1.2219228515625,-243.88125610351562,1118.71875,64.98750305175781
1659103342557923000,1.231923095703125,-244.1437530517578,1118.5875244140625,65.1187515258789
1659103342567923000,1.2419228515625,-244.40626525878906,1118.56884765625,65.0250015258789
1659103342577923000,1.251923095703125,-244.55625915527344,1118.550048828125,64.70625305175781
1659103342587923000,1.2619228515625,-244.46250915527344,1118.6812744140625,64.96875
1659103342597923000,1.271923095703125,-244.18125915527344,1119.03759765625,65.0250015258789
1659103342607923000,1.2819228515625,-244.0500030517578,1119.22509765625,65.04375457763672
1659103342617923000,1.291923095703125,-244.20001220703125,1119.112548828125,64.80000305175781
1659103342627923000,1.3019228515625,-244.20001220703125,1119.300048828125,64.9312515258789
1659103342637923000,1.311923095703125,-243.84376525878906,1119.581298828125,64.96875
1659103342647923000,1.3219228515625,-243.46876525878906,1119.69384765625,64.98750305175781
1659103342657923000,1.331923095703125,-243.37501525878906,1119.78759765625,65.0625
1659103342667923000,1.3419228515625,-243.31875610351562,1119.9188232421875,65.04375457763672
1659103342677923000,1.351923095703125,-243.37501525878906,1119.65625,64.7437515258789
1659103342687923000,1.3619228515625,-243.65626525878906,1119.2625732421875,65.00625610351562
1659103342697923000,1.371923095703125,-243.3937530517578,1119.28125,65.15625
1659103342707923000,1.3819228515625,-243.26251220703125,1119.0562744140625,65.0625
1659103342717923000,1.391923095703125,-243.50625610351562,1118.71875,65.00625610351562
1659103342727923000,1.4019228515625,-243.61875915527344,1118.75634765625,65.0250015258789
1659103342737923000,1.411923095703125,-243.52500915527344,1118.75634765625,65.0250015258789
1659103342747923000,1.4219228515625,-243.46876525878906,1118.8687744140625,65.10000610351562
1659103342757923000,1.431923095703125,-243.24375915527344,1119.22509765625,65.32500457763672
1659103342767923000,1.4419228515625,-243.28126525878906,1119.2625732421875,65.36250305175781
1659103342777923000,1.451923095703125,-243.22500610351562,1119.112548828125,65.41875457763672
1659103342787923000,1.4619228515625,-243.35626220703125,1119.375,65.45625305175781
1659103342797923000,1.471923095703125,-243.43125915527344,1119.5438232421875,65.34375
1659103342807923000,1.4819228515625,-243.43125915527344,1119.5250244140625,65.23125457763672
1659103342817923000,1.491923095703125,-243.54376220703125,1119.7313232421875,65.25
1659103342827923000,1.5019228515625,-243.52500915527344,1119.7125244140625,65.19375610351562
1659103342837923000,1.511923095703125,-243.37501525878906,1119.8062744140625,65.15625
1659103342847923000,1.5219228515625,-243.3937530517578,1119.41259765625,65.17500305175781
1659103342857923000,1.531923095703125,-243.71250915527344,1119.862548828125,64.95000457763672
1659103342867923000,1.5419228515625,-243.65626525878906,1119.88134765625,65.0250015258789
1659103342877923000,1.551923095703125,-243.63751220703125,1119.7125244140625,65.13750457763672
1659103342887923000,1.5619228515625,-243.73126220703125,1119.487548828125,65.04375457763672
1659103342897923000,1.571923095703125,-243.6750030517578,1119.1688232421875,65.04375457763672
1659103342907923000,1.5819228515625,-243.54376220703125,1118.90625,64.76250457763672
1659103342917923000,1.591923095703125,-243.84376525878906,1118.456298828125,64.72500610351562
1659103342927923000,1.6019228515625,-243.71250915527344,1119.1688232421875,64.48125457763672
1659103342937923000,1.611923095703125,-243.43125915527344,1119.03759765625,64.76250457763672
1659103342947923000,1.6219228515625,-243.6750030517578,1119.13134765625,64.66875457763672
1659103342957923000,1.631923095703125,-243.61875915527344,1119.0562744140625,64.66875457763672
1659103342967923000,1.6419228515625,-243.54376220703125,1119.1875,64.81875610351562
1659103342977923000,1.651923095703125,-243.28126525878906,1119.28125,64.96875
1659103342987923000,1.6619228515625,-243.37501525878906,1119.206298828125,65.26875305175781
1659103342997923000,1.671923095703125,-243.22500610351562,1119.41259765625,65.28750610351562
1659103343007923000,1.6819228515625,-243.05625915527344,1119.300048828125,65.08125305175781
1659103343017923000,1.691923095703125,-243.09376525878906,1119.206298828125,65.15625
1659103343027923000,1.7019228515625,-242.88751220703125,1119,65.17500305175781
1659103343037923000,1.711923095703125,-242.68125915527344,1119.13134765625,65.08125305175781
1659103343047923000,1.7219228515625,-242.38125610351562,1119.206298828125,65.2125015258789
1659103343057923000,1.731923095703125,-242.81251525878906,1119.2437744140625,65.0250015258789
1659103343067923000,1.7419228515625,-242.96250915527344,1119.46875,64.7437515258789
1659103343077923000,1.751923095703125,-243.05625915527344,1119.5625,64.61250305175781
1659103343087923000,1.7619228515625,-243.3000030517578,1119.46875,64.63125610351562
1659103343097923000,1.771923095703125,-243.4875030517578,1119.3563232421875,64.33125305175781
1659103343107923000,1.7819228515625,-243.52500915527344,1119.09375,64.2750015258789
1659103343117923000,1.791923095703125,-243.90000915527344,1119.0562744140625,64.6500015258789
1659103343127923000,1.8019228515625,-244.25625610351562,1119.112548828125,64.51875305175781
1659103343137923000,1.811923095703125,-244.1437530517578,1118.90625,64.48125457763672
1659103343147923000,1.8219228515625,-243.9562530517578,1118.8125,64.44375610351562
1659103343157923000,1.831923095703125,-243.63751220703125,1119,64.66875457763672
1659103343167923000,1.8419228515625,-243.52500915527344,1118.9625244140625,64.95000457763672
1659103343177923000,1.851923095703125,-243.65626525878906,1119.0562744140625,65.17500305175781
1659103343187923000,1.8619228515625,-243.69375610351562,1119.2437744140625,65.19375610351562
1659103343197923000,1.871923095703125,-243.18751525878906,1119.375,64.91250610351562
1659103343207923000,1.8819228515625,-243.28126525878906,1119.4500732421875,64.81875610351562
1659103343217923000,1.891923095703125,-243.16876220703125,1119.84375,64.95000457763672
1659103343227923000,1.9019228515625,-243.24375915527344,1119.5438232421875,64.95000457763672
1659103343237923000,1.911923095703125,-243.45001220703125,1119.31884765625,65.0625
1659103343247923000,1.9219228515625,-243.26251220703125,1119.65625,65.1187515258789
1659103343257923000,1.931923095703125,-243.24375915527344,1119.7125244140625,65.0250015258789
1659103343267923000,1.9419228515625,-243.03750610351562,1119.84375,64.98750305175781
1659103343277923000,1.951923095703125,-243.3000030517578,1120.03125,65.0625
1659103343287923000,1.9619228515625,-243.24375915527344,1119.7125244140625,65.0625
1659103343297923000,1.971923095703125,-243.24375915527344,1119.3563232421875,64.875
1659103343307923000,1.9819228515625,-243.1125030517578,1119.7125244140625,65.08125305175781
1659103343317923000,1.991923095703125,-243.00001525878906,1119.60009765625,64.8375015258789
1659103343327923000,2.0019228515625,-243.0187530517578,1119.5250244140625,64.78125
1659103343337923000,2.011923095703125,-242.66250610351562,1119.6187744140625,64.78125
1659103343347923000,2.0219228515625,-242.6437530517578,1119.4500732421875,64.875
1659103343357923000,2.031923095703125,-242.94375610351562,1118.8125,64.78125
1659103343367923000,2.0419228515625,-242.96250915527344,1118.8125,65.0625
1659103343377923000,2.051923095703125,-242.98126220703125,1118.90625,65.2125015258789
1659103343387923000,2.0619228515625,-243.00001525878906,1118.9625244140625,65.10000610351562
1659103343397923000,2.071923095703125,-242.96250915527344,1119.31884765625,65.08125305175781
1659103343407923000,2.0819228515625,-243.1125030517578,1119.112548828125,64.98750305175781
1659103343417923000,2.091923095703125,-243.26251220703125,1118.925048828125,65.04375457763672
1659103343427923000,2.1019228515625,-243.45001220703125,1118.7938232421875,64.8375015258789
1659103343437923000,2.111923095703125,-243.3937530517578,1118.7750244140625,64.76250457763672
1659103343447923000,2.1219228515625,-243.22500610351562,1119.03759765625,64.59375
1659103343457923000,2.131923095703125,-243.09376525878906,1119.2437744140625,64.5562515258789
1659103343467923000,2.1419228515625,-243.63751220703125,1118.7938232421875,64.51875305175781
1659103343477923000,2.151923095703125,-243.90000915527344,1118.53125,64.7437515258789
1659103343487923000,2.1619228515625,-243.99375915527344,1118.15625,64.96875
1659103343497923000,2.171923095703125,-243.84376525878906,1118.34375,64.875
1659103343507923000,2.1819228515625,-243.90000915527344,1118.643798828125,64.98750305175781
1659103343517923000,2.191923095703125,-243.8625030517578,1118.7750244140625,64.66875457763672
1659103343527923000,2.2019228515625,-244.25625610351562,1118.38134765625,64.8375015258789
1659103343537923000,2.211923095703125,-244.48126220703125,1118.3250732421875,65.0625
1659103343547923000,2.2219228515625,-244.1437530517578,1118.831298828125,65.0250015258789
1659103343557923000,2.231923095703125,-243.90000915527344,1119.03759765625,64.85625457763672
1659103343567923000,2.2419228515625,-243.69375610351562,1119.5250244140625,64.70625305175781
1659103343577923000,2.251923095703125,-243.90000915527344,1119.4500732421875,64.875
1659103343587923000,2.2619228515625,-243.61875915527344,1119.375,64.6875
1659103343597923000,2.271923095703125,-243.71250915527344,1119.1875,65.00625610351562
1659103343607923000,2.2819228515625,-243.63751220703125,1119.46875,64.76250457763672
1659103343617923000,2.291923095703125,-243.71250915527344,1119.4312744140625,64.57500457763672
1659103343627923000,2.3019228515625,-243.78750610351562,1119.2437744140625,64.76250457763672
1659103343637923000,2.311923095703125,-243.84376525878906,1119.1500244140625,64.875
1659103343647923000,2.3219228515625,-243.84376525878906,1119.13134765625,64.57500457763672
1659103343657923000,2.331923095703125,-243.84376525878906,1119.0562744140625,64.81875610351562
1659103343667923000,2.3419228515625,-244.10626220703125,1119.0750732421875,65.04375457763672
1659103343677923000,2.351923095703125,-243.78750610351562,1119.5438232421875,65.23125457763672
1659103343687923000,2.3619228515625,-243.45001220703125,1119.6375732421875,65.38125610351562
1659103343697923000,2.371923095703125,-243.07501220703125,1119.50634765625,65.53125
1659103343707923000,2.3819228515625,-242.94375610351562,1119.69384765625,65.32500457763672
1659103343717923000,2.391923095703125,-243.09376525878906,1119.6375732421875,65.41875457763672
1659103343727923000,2.4019228515625,-243.07501220703125,1119.7313232421875,65.6812515258789
1659103343737923000,2.411923095703125,-243.54376220703125,1119.50634765625,65.53125
1659103343747923000,2.4219228515625,-243.35626220703125,1119.41259765625,65.53125
1659103343757923000,2.431923095703125,-243.52500915527344,1119.4312744140625,65.41875457763672
1659103343767923000,2.4419228515625,-243.69375610351562,1119.2437744140625,65.28750610351562
1659103343777923000,2.451923095703125,-243.90000915527344,1119.300048828125,65.2125015258789
1659103343787923000,2.4619228515625,-244.16250610351562,1119.206298828125,65.2125015258789
1659103343797923000,2.471923095703125,-244.01251220703125,1118.9625244140625,65.19375610351562
1659103343807923000,2.4819228515625,-244.06875610351562,1119.0562744140625,65.08125305175781
1659103343817923000,2.491923095703125,-243.41250610351562,1119.487548828125,64.80000305175781
1659103343827923000,2.5019228515625,-243.56251525878906,1119.5625,64.875
1659103343837923000,2.511923095703125,-243.50625610351562,1119.5625,64.78125
1659103343847923000,2.5219228515625,-243.3937530517578,1119.581298828125,64.76250457763672
1659103343857923000,2.531923095703125,-243.7687530517578,1119.3563232421875,64.80000305175781
1659103343867923000,2.5419228515625,-243.3937530517578,1119.2625732421875,64.81875610351562
1659103343877923000,2.551923095703125,-243.43125915527344,1119.41259765625,64.59375
1659103343887923000,2.5619228515625,-243.37501525878906,1119.28125,64.70625305175781
1659103343897923000,2.571923095703125,-243.46876525878906,1119.22509765625,64.85625457763672
1659103343907923000,2.5819228515625,-243.5812530517578,1119.300048828125,64.9312515258789
1659103343917923000,2.591923095703125,-243.54376220703125,1119.375,65.25
1659103343927923000,2.6019228515625,-243.90000915527344,1119.50634765625,65.4375
1659103343937923000,2.611923095703125,-243.54376220703125,1119.862548828125,65.17500305175781
1659103343947923000,2.6219228515625,-243.43125915527344,1120.050048828125,65.28750610351562
1659103343957923000,2.631923095703125,-243.26251220703125,1120.03125,65.4000015258789
1659103343967923000,2.6419228515625,-243.28126525878906,1120.1812744140625,65.51250457763672
1659103343977923000,2.651923095703125,-243.3000030517578,1120.2750244140625,65.32500457763672
1659103343987923000,2.6619228515625,-243.1125030517578,1120.1812744140625,65.26875305175781
1659103343997923000,2.671923095703125,-242.98126220703125,1120.2000732421875,64.98750305175781
1659103344007923000,2.6819228515625,-242.8312530517578,1120.2938232421875,65.10000610351562
1659103344017923000,2.691923095703125,-242.85000610351562,1120.2000732421875,65.25
1659103344027923000,2.7019228515625,-242.8312530517578,1120.1063232421875,65.32500457763672
1659103344037923000,2.711923095703125,-243.13125610351562,1120.2000732421875,64.9312515258789
1659103344047923000,2.7219228515625,-243.31875610351562,1120.25634765625,64.70625305175781
1659103344057923000,2.731923095703125,-243.3000030517578,1120.0125732421875,64.95000457763672
1659103344067923000,2.7419228515625,-243.31875610351562,1119.9000244140625,64.78125
1659103344077923000,2.751923095703125,-243.46876525878906,1119.9375,65.1187515258789
1659103344087923000,2.7619228515625,-243.26251220703125,1119.6187744140625,64.95000457763672
1659103344097923000,2.771923095703125,-243.24375915527344,1119.6375732421875,64.9312515258789
1659103344107923000,2.7819228515625,-243.52500915527344,1120.0125732421875,64.8375015258789
1659103344117923000,2.791923095703125,-243.35626220703125,1120.06884765625,65.1187515258789
1659103344127923000,2.8019228515625,-242.94375610351562,1119.9375,65.23125457763672
1659103344137923000,2.811923095703125,-243.07501220703125,1120.03125,65.26875305175781
1659103344147923000,2.8219228515625,-243.18751525878906,1120.16259765625,65.34375
1659103344157923000,2.831923095703125,-243.28126525878906,1120.03125,65.26875305175781
1659103344167923000,2.8419228515625,-243.22500610351562,1120.40625,65.28750610351562
1659103344177923000,2.851923095703125,-243.3937530517578,1120.4813232421875,65.4000015258789
1659103344187923000,2.8619228515625,-243.3937530517578,1120.125,65.32500457763672
1659103344197923000,2.871923095703125,-243.54376220703125,1119.9937744140625,65.4937515258789
1659103344207923000,2.8819228515625,-243.63751220703125,1119.9188232421875,65.4375
1659103344217923000,2.891923095703125,-243.43125915527344,1119.97509765625,65.23125457763672
1659103344227923000,2.9019228515625,-243.43125915527344,1119.97509765625,65.19375610351562
1659103344237923000,2.911923095703125,-243.28126525878906,1120.03125,64.95000457763672
1659103344247923000,2.9219228515625,-243.31875610351562,1119.8062744140625,64.7437515258789
1659103344257923000,2.931923095703125,-243.16876220703125,1119.75,64.6500015258789
1659103344267923000,2.9419228515625,-243.31875610351562,1119.65625,64.9312515258789
1659103344277923000,2.951923095703125,-243.3000030517578,1119.862548828125,64.81875610351562
1659103344287923000,2.9619228515625,-243.41250610351562,1119.88134765625,64.8375015258789
1659103344297923000,2.971923095703125,-243.73126220703125,1119.675048828125,65.1187515258789
1659103344307923000,2.9819228515625,-243.46876525878906,1119.7313232421875,65.19375610351562
1659103344317923000,2.991923095703125,-243.31875610351562,1119.75,65.36250305175781
1659103344327923000,3.0019228515625,-243.31875610351562,1119.78759765625,65.71875
1659103344337923000,3.011923095703125,-243.33750915527344,1119.8250732421875,65.73750305175781
1659103344347923000,3.0219228515625,-243.31875610351562,1119.487548828125,65.47500610351562
1659103344357923000,3.031923095703125,-243.2062530517578,1119.3375244140625,65.4937515258789
1659103344367923000,3.0419228515625,-243.09376525878906,1119.31884765625,65.625
1659103344377923000,3.051923095703125,-243.05625915527344,1119.60009765625,65.25
1659103344387923000,3.0619228515625,-243.28126525878906,1119.4312744140625,65.2125015258789
1659103344397923000,3.071923095703125,-243.07501220703125,1119.31884765625,65.34375
1659103344407923000,3.0819228515625,-243.18751525878906,1119.5250244140625,65.25
1659103344417923000,3.091923095703125,-243.56251525878906,1118.94384765625,65.38125610351562
1659103344427923000,3.1019228515625,-243.22500610351562,1119.46875,65.5875015258789
1659103344437923000,3.111923095703125,-243.26251220703125,1119.46875,65.4937515258789
1659103344447923000,3.1219228515625,-243.05625915527344,1119.3563232421875,65.4000015258789
1659103344457923000,3.131923095703125,-242.77500915527344,1119.300048828125,65.55000305175781
1659103344467923000,3.1419228515625,-242.71876525878906,1119.581298828125,65.73750305175781
1659103344477923000,3.151923095703125,-242.98126220703125,1119.65625,65.5875015258789
1659103344487923000,3.1619228515625,-243.18751525878906,1118.90625,65.75625610351562
1659103344497923000,3.171923095703125,-242.53126525878906,1119.206298828125,65.60625457763672
1659103344507923000,3.1819228515625,-242.68125915527344,1119.206298828125,65.32500457763672
1659103344517923000,3.191923095703125,-242.6437530517578,1119.28125,65.4375
1659103344527923000,3.2019228515625,-242.94375610351562,1119.41259765625,65.28750610351562
1659103344537923000,3.211923095703125,-242.9250030517578,1119.393798828125,65.26875305175781
1659103344547923000,3.2219228515625,-242.68125915527344,1119.2437744140625,65.04375457763672
1659103344557923000,3.231923095703125,-243.24375915527344,1119.1500244140625,65.13750457763672
1659103344567923000,3.2419228515625,-243.15000915527344,1119.60009765625,64.96875
1659103344577923000,3.251923095703125,-243.26251220703125,1119.9937744140625,64.98750305175781
1659103344587923000,3.2619228515625,-243.3937530517578,1119.9937744140625,64.89375305175781
1659103344597923000,3.271923095703125,-243.4875030517578,1120.16259765625,64.81875610351562
1659103344607923000,3.2819228515625,-243.50625610351562,1120.2750244140625,65.1187515258789
1659103344617923000,3.291923095703125,-243.43125915527344,1120.2938232421875,65.13750457763672
1659103344627923000,3.3019228515625,-244.10626220703125,1119.862548828125,65.17500305175781
1659103344637923000,3.311923095703125,-243.7687530517578,1119.9937744140625,64.9312515258789
1659103344647923000,3.3219228515625,-243.4875030517578,1119.88134765625,64.8375015258789
1659103344657923000,3.331923095703125,-243.54376220703125,1119.60009765625,64.8375015258789
1659103344667923000,3.3419228515625,-243.4875030517578,1119.8062744140625,65.04375457763672
1659103344677923000,3.351923095703125,-243.3937530517578,1119.5438232421875,64.91250610351562
1659103344687923000,3.3619228515625,-243.37501525878906,1119.375,64.76250457763672
1659103344697923000,3.371923095703125,-243.56251525878906,1119.393798828125,64.76250457763672
1659103344707923000,3.3819228515625,-243.2062530517578,1119.84375,64.81875610351562
1659103344717923000,3.391923095703125,-243.24375915527344,1120.0875244140625,64.95000457763672
1659103344727923000,3.4019228515625,-243.61875915527344,1120.518798828125,64.9312515258789
1659103344737923000,3.411923095703125,-243.78750610351562,1120.59375,64.6875
1659103344747923000,3.4219228515625,-243.5812530517578,1120.2938232421875,64.59375
1659103344757923000,3.431923095703125,-243.35626220703125,1120.2000732421875,64.875
1659103344767923000,3.4419228515625,-243.3937530517578,1119.862548828125,64.63125610351562
1659103344777923000,3.451923095703125,-243.28126525878906,1119.8250732421875,64.72500610351562
1659103344787923000,3.4619228515625,-243.13125610351562,1119.675048828125,64.6875
1659103344797923000,3.471923095703125,-242.70001220703125,1119.393798828125,64.63125610351562
1659103344807923000,3.4819228515625,-242.19375610351562,1119.13134765625,64.8375015258789
1659103344817923000,3.491923095703125,-242.11875915527344,1119.22509765625,65.15625
1659103344827923000,3.5019228515625,-242.40000915527344,1118.8687744140625,64.91250610351562
1659103344837923000,3.511923095703125,-242.56875610351562,1118.8875732421875,64.6500015258789
1659103344847923000,3.5219228515625,-242.5500030517578,1119.206298828125,65.00625610351562
1659103344857923000,3.531923095703125,-242.70001220703125,1119.0562744140625,64.95000457763672
1659103344867923000,3.5419228515625,-242.85000610351562,1119.09375,64.85625457763672
1659103344877923000,3.551923095703125,-243.1125030517578,1119.31884765625,65.0625
1659103344887923000,3.5619228515625,-243.35626220703125,1119.1688232421875,64.78125
1659103344897923000,3.571923095703125,-243.65626525878906,1118.550048828125,65.13750457763672
1659103344907923000,3.5819228515625,-243.8625030517578,1118.550048828125,65.23125457763672
1659103344917923000,3.591923095703125,-244.0500030517578,1118.5875244140625,65.34375
1659103344927923000,3.6019228515625,-244.29376220703125,1118.47509765625,65.34375
1659103344937923000,3.611923095703125,-244.3312530517578,1118.6812744140625,65.28750610351562
1659103344947923000,3.6219228515625,-244.2375030517578,1118.8687744140625,65.41875457763672
1659103344957923000,3.631923095703125,-244.18125915527344,1118.75634765625,65.26875305175781
1659103344967923000,3.6419228515625,-244.40626525878906,1118.456298828125,65.625
1659103344977923000,3.651923095703125,-244.59376525878906,1118.71875,65.15625
1659103344987923000,3.6619228515625,-244.16250610351562,1119.0750732421875,65.4000015258789
1659103344997923000,3.671923095703125,-244.20001220703125,1119.03759765625,65.625
1659103345007923000,3.6819228515625,-243.93751525878906,1119.03759765625,65.66250610351562
1659103345017923000,3.691923095703125,-243.61875915527344,1118.925048828125,65.51250457763672
1659103345027923000,3.7019228515625,-243.75001525878906,1118.71875,65.4375
1659103345037923000,3.711923095703125,-243.93751525878906,1118.5875244140625,65.38125610351562
1659103345047923000,3.7219228515625,-243.69375610351562,1119.1500244140625,65.00625610351562
1659103345057923000,3.731923095703125,-243.22500610351562,1119.1875,65.0625
1659103345067923000,3.7419228515625,-243.3000030517578,1119.1500244140625,65.3062515258789
1659103345077923000,3.751923095703125,-243.13125610351562,1119.375,65.04375457763672
1659103345087923000,3.7619228515625,-243.22500610351562,1119.69384765625,64.96875
1659103345097923000,3.771923095703125,-243.43125915527344,1119.768798828125,65.17500305175781
1659103345107923000,3.7819228515625,-243.46876525878906,1119.7313232421875,65.41875457763672
1659103345117923000,3.791923095703125,-243.4875030517578,1119.65625,65.60625457763672
1659103345127923000,3.8019228515625,-243.73126220703125,1119.4500732421875,65.7750015258789
1659103345137923000,3.811923095703125,-244.0500030517578,1119.5250244140625,65.90625
1659103345147923000,3.8219228515625,-243.99375915527344,1119.7125244140625,65.73750305175781
1659103345157923000,3.831923095703125,-244.03126525878906,1119.60009765625,65.79375457763672
1659103345167923000,3.8419228515625,-243.90000915527344,1119.31884765625,65.73750305175781
1659103345177923000,3.851923095703125,-243.78750610351562,1119.31884765625,65.73750305175781
1659103345187923000,3.8619228515625,-243.75001525878906,1119.5438232421875,65.60625457763672
1659103345197923000,3.871923095703125,-243.69375610351562,1119.768798828125,65.56875610351562
1659103345207923000,3.8819228515625,-243.4875030517578,1119.8062744140625,65.6812515258789
1659103345217923000,3.891923095703125,-243.3000030517578,1119.9375,65.60625457763672
1659103345227923000,3.9019228515625,-243.18751525878906,1119.8062744140625,65.6812515258789
1659103345237923000,3.911923095703125,-243.2062530517578,1119.862548828125,65.625
1659103345247923000,3.9219228515625,-243.24375915527344,1120.143798828125,65.6812515258789
1659103345257923000,3.931923095703125,-243.71250915527344,1119.9375,65.47500610351562
1659103345267923000,3.9419228515625,-243.90000915527344,1119.75,65.10000610351562
1659103345277923000,3.951923095703125,-243.71250915527344,1119.768798828125,65.23125457763672
1659103345287923000,3.9619228515625,-243.71250915527344,1119.9188232421875,65.00625610351562
1659103345297923000,3.971923095703125,-243.75001525878906,1119.956298828125,65.10000610351562
1659103345307923000,3.9819228515625,-243.84376525878906,1120.050048828125,64.96875
1659103345317923000,3.991923095703125,-243.97500610351562,1119.8062744140625,65.0625
1659103345327923000,4.0019228515625,-243.9562530517578,1119.60009765625,64.9312515258789
1659103345337923000,4.011923095703125,-243.54376220703125,1120.0125732421875,65.26875305175781
1659103345347923000,4.0219228515625,-243.22500610351562,1120.03125,65.75625610351562
1659103345357923000,4.031923095703125,-243.31875610351562,1120.050048828125,65.625
1659103345367923000,4.0419228515625,-243.3000030517578,1119.956298828125,65.83125305175781
1659103345377923000,4.051923095703125,-243.13125610351562,1120.0125732421875,65.92500305175781
1659103345387923000,4.0619228515625,-243.24375915527344,1119.97509765625,65.94375610351562
1659103345397923000,4.071923095703125,-243.45001220703125,1119.768798828125,65.9625015258789
1659103345407923000,4.0819228515625,-243.75001525878906,1119.7313232421875,65.88750457763672
1659103345417923000,4.091923095703125,-244.31251525878906,1119.0562744140625,65.6812515258789
1659103345427923000,4.1019228515625,-244.50001525878906,1119.1688232421875,65.60625457763672
1659103345437923000,4.111923095703125,-244.57501220703125,1118.94384765625,65.51250457763672
1659103345447923000,4.1219228515625,-244.6125030517578,1119.112548828125,65.4000015258789
1659103345457923000,4.131923095703125,-244.8000030517578,1118.925048828125,65.15625
1659103345467923000,4.1419228515625,-244.6125030517578,1118.9625244140625,65.13750457763672
1659103345477923000,4.151923095703125,-244.36875915527344,1119.4312744140625,64.95000457763672
1659103345487923000,4.1619228515625,-244.20001220703125,1119.4312744140625,64.98750305175781
1659103345497923000,4.171923095703125,-243.73126220703125,1119.69384765625,64.81875610351562
1659103345507923000,4.1819228515625,-243.46876525878906,1119.65625,64.53750610351562
1659103345517923000,4.191923095703125,-243.41250610351562,1119.6187744140625,64.76250457763672
1659103345527923000,4.2019228515625,-243.2062530517578,1119.3375244140625,64.95000457763672
1659103345537923000,4.211923095703125,-243.05625915527344,1119.5625,64.91250610351562
1659103345547923000,4.2219228515625,-243.13125610351562,1119.8062744140625,65.0250015258789
1659103345557923000,4.231923095703125,-243.05625915527344,1119.5625,65.10000610351562
1659103345567923000,4.2419228515625,-242.81251525878906,1119.5250244140625,65.19375610351562
1659103345577923000,4.251923095703125,-242.70001220703125,1119.675048828125,65.45625305175781
1659103345587923000,4.2619228515625,-242.58750915527344,1119.581298828125,65.70000457763672
1659103345597923000,4.271923095703125,-242.21250915527344,1119.50634765625,65.64375305175781
1659103345607923000,4.2819228515625,-242.38125610351562,1119.5625,65.25
1659103345617923000,4.291923095703125,-242.60626220703125,1119.5625,65.45625305175781
1659103345627923000,4.3019228515625,-242.62501525878906,1119.22509765625,65.10000610351562
1659103345637923000,4.311923095703125,-242.4562530517578,1119.28125,65.4375
1659103345647923000,4.3219228515625,-242.5500030517578,1119.5625,65.4937515258789
1659103345657923000,4.331923095703125,-242.60626220703125,1119.5250244140625,65.4937515258789
1659103345667923000,4.3419228515625,-243.3937530517578,1119.018798828125,65.38125610351562
1659103345677923000,4.351923095703125,-243.71250915527344,1118.925048828125,65.13750457763672
1659103345687923000,4.3619228515625,-243.80625915527344,1119.0562744140625,65.23125457763672
1659103345697923000,4.371923095703125,-243.82501220703125,1118.925048828125,64.8375015258789
1659103345707923000,4.3819228515625,-243.73126220703125,1119.1875,65.0250015258789
1659103345717923000,4.391923095703125,-244.01251220703125,1119.28125,64.9312515258789
1659103345727923000,4.4019228515625,-244.16250610351562,1119.112548828125,64.80000305175781
1659103345737923000,4.411923095703125,-244.18125915527344,1118.90625,64.59375
1659103345747923000,4.4219228515625,-243.93751525878906,1119.206298828125,64.8375015258789
1659103345757923000,4.431923095703125,-244.08750915527344,1119.5250244140625,65.10000610351562
1659103345767923000,4.4419228515625,-244.10626220703125,1119.393798828125,65.26875305175781
1659103345777923000,4.451923095703125,-244.01251220703125,1119.375,65.4937515258789
1659103345787923000,4.4619228515625,-244.06875610351562,1119.1500244140625,65.41875457763672
1659103345797923000,4.471923095703125,-243.9562530517578,1119.112548828125,65.3062515258789
1659103345807923000,4.4819228515625,-244.27500915527344,1118.8125,65.70000457763672
1659103345817923000,4.491923095703125,-244.55625915527344,1118.90625,65.64375305175781
1659103345827923000,4.5019228515625,-244.29376220703125,1119.4312744140625,65.55000305175781
1659103345837923000,4.511923095703125,-244.29376220703125,1119.206298828125,65.56875610351562
1659103345847923000,4.5219228515625,-244.21876525878906,1119.1875,65.38125610351562
1659103345857923000,4.531923095703125,-244.01251220703125,1119.112548828125,65.26875305175781
1659103345867923000,4.5419228515625,-244.03126525878906,1119.13134765625,65.3062515258789
1659103345877923000,4.551923095703125,-244.40626525878906,1118.75634765625,65.53125
1659103345887923000,4.5619228515625,-244.29376220703125,1119.1688232421875,65.0250015258789
1659103345897923000,4.571923095703125,-244.2375030517578,1119.1875,65.10000610351562
1659103345907923000,4.5819228515625,-244.4250030517578,1118.831298828125,64.72500610351562
1659103345917923000,4.591923095703125,-244.68751525878906,1118.66259765625,64.6875
1659103345927923000,4.6019228515625,-244.63125610351562,1118.625,64.66875457763672
1659103345937923000,4.611923095703125,-244.65000915527344,1118.737548828125,64.875
1659103345947923000,4.6219228515625,-244.78126525878906,1118.8125,64.875
1659103345957923000,4.631923095703125,-244.50001525878906,1119.31884765625,64.48125457763672
1659103345967923000,4.6419228515625,-244.2375030517578,1119.3375244140625,64.61250305175781
1659103345977923000,4.651923095703125,-244.0500030517578,1119.50634765625,64.78125
1659103345987923000,4.6619228515625,-244.16250610351562,1119.03759765625,65.4000015258789
1659103345997923000,4.671923095703125,-244.12501525878906,1119.0750732421875,65.1187515258789
1659103346007923000,4.6819228515625,-244.08750915527344,1119.206298828125,65.19375610351562
1659103346017923000,4.691923095703125,-244.18125915527344,1119.09375,65.23125457763672
1659103346027923000,4.7019228515625,-243.93751525878906,1119.2625732421875,65.25
1659103346037923000,4.711923095703125,-243.80625915527344,1119.03759765625,65.4375
1659103346047923000,4.7219228515625,-244.08750915527344,1118.8125,65.4937515258789
1659103346057923000,4.731923095703125,-244.01251220703125,1118.831298828125,65.60625457763672
1659103346067923000,4.7419228515625,-243.60000610351562,1119.4500732421875,65.36250305175781
1659103346077923000,4.751923095703125,-243.18751525878906,1119.6375732421875,65.4937515258789
1659103346087923000,4.7619228515625,-243.43125915527344,1119.8250732421875,65.4937515258789
1659103346097923000,4.771923095703125,-243.41250610351562,1119.88134765625,65.51250457763672
1659103346107923000,4.7819228515625,-243.54376220703125,1119.7313232421875,65.625
1659103346117923000,4.791923095703125,-243.71250915527344,1119.768798828125,65.53125
1659103346127923000,4.8019228515625,-243.54376220703125,1119.9188232421875,65.73750305175781
1659103346137923000,4.811923095703125,-243.71250915527344,1119.862548828125,65.5875015258789
1659103346147923000,4.8219228515625,-243.73126220703125,1119.9188232421875,65.4937515258789
1659103346157923000,4.831923095703125,-243.9562530517578,1119.862548828125,65.4937515258789
1659103346167923000,4.8419228515625,-243.84376525878906,1119.84375,65.60625457763672
1659103346177923000,4.851923095703125,-243.80625915527344,1119.9375,65.5875015258789
1659103346187923000,4.8619228515625,-243.78750610351562,1119.956298828125,65.4937515258789
1659103346197923000,4.871923095703125,-243.35626220703125,1119.9375,65.85000610351562
1659103346207923000,4.8819228515625,-242.96250915527344,1119.9375,65.8125
1659103346217923000,4.891923095703125,-242.8312530517578,1120.0125732421875,65.90625
1659103346227923000,4.9019228515625,-242.8312530517578,1119.956298828125,66.0562515258789
1659103346237923000,4.911923095703125,-242.66250610351562,1120.25634765625,66.16875457763672
1659103346247923000,4.9219228515625,-242.66250610351562,1120.16259765625,66
1659103346257923000,4.931923095703125,-242.70001220703125,1120.125,66
1659103346267923000,4.9419228515625,-242.71876525878906,1119.97509765625,66.0562515258789
1659103346277923000,4.951923095703125,-243.15000915527344,1119.956298828125,65.98125457763672
1659103346287923000,4.9619228515625,-243.63751220703125,1120.0875244140625,65.73750305175781
1659103346297923000,4.971923095703125,-243.5812530517578,1119.956298828125,65.4000015258789
1659103346307923000,4.9819228515625,-243.71250915527344,1119.956298828125,64.96875
1659103346317923000,4.991923095703125,-243.75001525878906,1119.9000244140625,64.6500015258789
1659103346327923000,5.0019228515625,-243.71250915527344,1119.9000244140625,64.59375
1659103346337923000,5.011923095703125,-243.71250915527344,1119.768798828125,64.5
1659103346347923000,5.0219228515625,-244.01251220703125,1119.31884765625,64.33125305175781
1659103346357923000,5.031923095703125,-243.90000915527344,1119.487548828125,64.05000305175781
1659103346367923000,5.0419228515625,-243.63751220703125,1119.2437744140625,64.125
1659103346377923000,5.051923095703125,-243.65626525878906,1119.393798828125,64.3687515258789
1659103346387923000,5.0619228515625,-243.50625610351562,1119.22509765625,64.48125457763672
1659103346397923000,5.071923095703125,-243.5812530517578,1119.1688232421875,64.57500457763672
1659103346407923000,5.0819228515625,-243.73126220703125,1119.22509765625,64.76250457763672
1659103346417923000,5.091923095703125,-243.82501220703125,1119.375,64.80000305175781
1659103346427923000,5.1019228515625,-243.5812530517578,1119.50634765625,64.81875610351562
1659103346437923000,5.111923095703125,-243.28126525878906,1119.1500244140625,65.00625610351562
1659103346447923000,5.1219228515625,-243.15000915527344,1119.09375,65.0250015258789
1659103346457923000,5.131923095703125,-243.31875610351562,1118.9813232421875,65.1187515258789
1659103346467923000,5.1419228515625,-243.28126525878906,1119.1500244140625,65.19375610351562
1659103346477923000,5.151923095703125,-243.1125030517578,1119.22509765625,65.36250305175781
1659103346487923000,5.1619228515625,-242.9250030517578,1119.018798828125,65.26875305175781
1659103346497923000,5.171923095703125,-243.03750610351562,1118.737548828125,65.04375457763672
1659103346507923000,5.1819228515625,-243.03750610351562,1119,65.13750457763672
1659103346517923000,5.191923095703125,-243.31875610351562,1119.31884765625,65.0625
1659103346527923000,5.2019228515625,-243.3937530517578,1119.1688232421875,65.0250015258789
1659103346537923000,5.211923095703125,-242.98126220703125,1119.2437744140625,65.00625610351562
1659103346547923000,5.2219228515625,-243.26251220703125,1119.206298828125,65.04375457763672
1659103346557923000,5.231923095703125,-243.3937530517578,1119.206298828125,64.95000457763672
1659103346567923000,5.2419228515625,-243.18751525878906,1119.1875,65.15625
1659103346577923000,5.251923095703125,-242.98126220703125,1119.50634765625,65.36250305175781
1659103346587923000,5.2619228515625,-242.96250915527344,1119.300048828125,65.34375
1659103346597923000,5.271923095703125,-243.3937530517578,1118.9813232421875,65.25
1659103346607923000,5.2819228515625,-243.3937530517578,1119.28125,65.19375610351562
1659103346617923000,5.291923095703125,-243.50625610351562,1119.3563232421875,65.25
1659103346627923000,5.3019228515625,-243.3000030517578,1119.4500732421875,65.2125015258789
1659103346637923000,5.311923095703125,-243.26251220703125,1119.28125,65.19375610351562
1659103346647923000,5.3219228515625,-243.54376220703125,1119.41259765625,64.875
1659103346657923000,5.331923095703125,-243.52500915527344,1119.03759765625,64.59375
1659103346667923000,5.3419228515625,-243.71250915527344,1119.0562744140625,64.85625457763672
1659103346677923000,5.351923095703125,-243.26251220703125,1119.41259765625,64.875
1659103346687923000,5.3619228515625,-243.03750610351562,1119.300048828125,64.78125
1659103346697923000,5.371923095703125,-243.33750915527344,1119.206298828125,64.66875457763672
1659103346707923000,5.3819228515625,-243.37501525878906,1119.28125,64.66875457763672
1659103346717923000,5.391923095703125,-243.46876525878906,1119.112548828125,64.61250305175781
1659103346727923000,5.4019228515625,-243.82501220703125,1118.550048828125,64.70625305175781
1659103346737923000,5.411923095703125,-243.71250915527344,1118.8875732421875,64.875
1659103346747923000,5.4219228515625,-243.45001220703125,1119.1688232421875,64.57500457763672
1659103346757923000,5.431923095703125,-243.73126220703125,1119.2437744140625,64.5562515258789
1659103346767923000,5.4419228515625,-244.0500030517578,1119.31884765625,64.6500015258789
1659103346777923000,5.451923095703125,-243.93751525878906,1119.22509765625,64.53750610351562
1659103346787923000,5.4619228515625,-243.9562530517578,1118.7938232421875,64.61250305175781
1659103346797923000,5.471923095703125,-244.12501525878906,1118.7938232421875,64.42500305175781
1659103346807923000,5.4819228515625,-243.90000915527344,1119.2625732421875,64.4625015258789
1659103346817923000,5.491923095703125,-243.88125610351562,1119.375,64.5
1659103346827923000,5.5019228515625,-243.90000915527344,1119.46875,64.91250610351562
1659103346837923000,5.511923095703125,-243.65626525878906,1119.31884765625,64.61250305175781
1659103346847923000,5.5219228515625,-243.52500915527344,1119.22509765625,64.70625305175781
1659103346857923000,5.531923095703125,-243.88125610351562,1118.8687744140625,65.28750610351562
1659103346867923000,5.5419228515625,-243.97500610351562,1119.13134765625,65.15625
1659103346877923000,5.551923095703125,-244.01251220703125,1119.018798828125,65.15625
1659103346887923000,5.5619228515625,-243.82501220703125,1119.0750732421875,65.13750457763672
1659103346897923000,5.571923095703125,-243.8625030517578,1119.018798828125,65.23125457763672
1659103346907923000,5.5819228515625,-243.9562530517578,1119.1500244140625,65.0250015258789
1659103346917923000,5.591923095703125,-244.01251220703125,1119.2625732421875,65.38125610351562
1659103346927923000,5.6019228515625,-244.12501525878906,1119.31884765625,65.38125610351562
1659103346937923000,5.611923095703125,-243.73126220703125,1119.7125244140625,65.0250015258789
1659103346947923000,5.6219228515625,-243.5812530517578,1119.69384765625,65.28750610351562
1659103346957923000,5.631923095703125,-243.63751220703125,1119.8062744140625,65.47500610351562
1659103346967923000,5.6419228515625,-243.65626525878906,1119.3563232421875,65.64375305175781
1659103346977923000,5.651923095703125,-243.6750030517578,1119.375,65.53125
1659103346987923000,5.6619228515625,-243.54376220703125,1119.206298828125,65.5875015258789
1659103346997923000,5.671923095703125,-243.4875030517578,1119.300048828125,65.55000305175781
1659103347007923000,5.6819228515625,-243.45001220703125,1119.1688232421875,65.38125610351562
1659103347017923000,5.691923095703125,-243.52500915527344,1119.1875,65.25
1659103347027923000,5.7019228515625,-243.93751525878906,1118.8125,65.45625305175781
1659103347037923000,5.711923095703125,-243.52500915527344,1118.71875,65.70000457763672
1659103347047923000,5.7219228515625,-243.61875915527344,1119.2437744140625,65.625
1659103347057923000,5.731923095703125,-243.71250915527344,1119,65.66250610351562
1659103347067923000,5.7419228515625,-243.28126525878906,1118.8875732421875,65.32500457763672
1659103347077923000,5.751923095703125,-243.15000915527344,1118.9813232421875,65.32500457763672
1659103347087923000,5.7619228515625,-243.22500610351562,1118.9625244140625,65.55000305175781
1659103347097923000,5.771923095703125,-243.24375915527344,1119.0750732421875,65.53125
1659103347107923000,5.7819228515625,-242.90626525878906,1119.22509765625,65.15625
1659103347117923000,5.791923095703125,-242.90626525878906,1119.393798828125,64.91250610351562
1659103347127923000,5.8019228515625,-242.58750915527344,1119.1875,65.0250015258789
1659103347137923000,5.811923095703125,-242.8312530517578,1119.3375244140625,65.0250015258789
1659103347147923000,5.8219228515625,-243.1125030517578,1119.4312744140625,65.00625610351562
1659103347157923000,5.831923095703125,-243.33750915527344,1119.2437744140625,64.95000457763672
1659103347167923000,5.8419228515625,-243.07501220703125,1119.28125,64.80000305175781
1659103347177923000,5.851923095703125,-243.09376525878906,1119.22509765625,64.95000457763672
1659103347187923000,5.8619228515625,-243.2062530517578,1119.375,64.80000305175781
1659103347197923000,5.871923095703125,-243.16876220703125,1119.5438232421875,64.875
1659103347207923000,5.8819228515625,-243.31875610351562,1119.4312744140625,64.7437515258789
1659103347217923000,5.891923095703125,-243.05625915527344,1119.206298828125,64.8375015258789
1659103347227923000,5.9019228515625,-243.3000030517578,1119.13134765625,65.04375457763672
1659103347237923000,5.911923095703125,-243.24375915527344,1119.1688232421875,65.13750457763672
1659103347247923000,5.9219228515625,-243.46876525878906,1119.393798828125,64.96875
1659103347257923000,5.931923095703125,-243.24375915527344,1119.300048828125,64.875
1659103347267923000,5.9419228515625,-243.00001525878906,1119.4500732421875,65.10000610351562
1659103347277923000,5.951923095703125,-243.16876220703125,1119.60009765625,65.0625
1659103347287923000,5.9619228515625,-243.26251220703125,1119.9188232421875,64.91250610351562
1659103347297923000,5.971923095703125,-243.41250610351562,1120.16259765625,64.91250610351562
1659103347307923000,5.9819228515625,-243.18751525878906,1120.16259765625,64.80000305175781
1659103347317923000,5.991923095703125,-243.13125610351562,1120.050048828125,64.8375015258789
1659103347327923000,6.0019228515625,-242.9250030517578,1119.9375,65.00625610351562
1659103347337923000,6.011923095703125,-243.00001525878906,1119.9188232421875,64.85625457763672
1659103347347923000,6.0219228515625,-243.00001525878906,1119.60009765625,64.95000457763672
1659103347357923000,6.031923095703125,-243.05625915527344,1119.206298828125,64.63125610351562
1659103347367923000,6.0419228515625,-243.16876220703125,1118.8687744140625,64.9312515258789
1659103347377923000,6.051923095703125,-242.96250915527344,1118.7000732421875,64.72500610351562
1659103347387923000,6.0619228515625,-243.18751525878906,1118.56884765625,64.70625305175781
1659103347397923000,6.071923095703125,-243.2062530517578,1118.5875244140625,64.51875305175781
1659103347407923000,6.0819228515625,-243.37501525878906,1118.625,64.35000610351562
1659103347417923000,6.091923095703125,-243.90000915527344,1118.456298828125,64.2750015258789
1659103347427923000,6.1019228515625,-244.27500915527344,1118.38134765625,64.25625610351562
1659103347437923000,6.111923095703125,-244.1437530517578,1118.6812744140625,64.6875
1659103347447923000,6.1219228515625,-244.12501525878906,1118.8687744140625,64.5562515258789
1659103347457923000,6.131923095703125,-244.18125915527344,1119.13134765625,64.7437515258789
1659103347467923000,6.1419228515625,-244.10626220703125,1119.2625732421875,64.70625305175781
1659103347477923000,6.151923095703125,-244.21876525878906,1119.46875,64.81875610351562
1659103347487923000,6.1619228515625,-244.65000915527344,1119.0750732421875,64.78125
1659103347497923000,6.171923095703125,-244.1437530517578,1119.112548828125,65.15625
1659103347507923000,6.1819228515625,-243.97500610351562,1119.3563232421875,64.95000457763672
1659103347517923000,6.191923095703125,-244.0500030517578,1119.46875,64.875
1659103347527923000,6.2019228515625,-244.0500030517578,1119.46875,64.78125
1659103347537923000,6.211923095703125,-244.08750915527344,1119.375,64.78125
1659103347547923000,6.2219228515625,-244.16250610351562,1119.487548828125,64.8375015258789
1659103347557923000,6.231923095703125,-244.03126525878906,1119.3563232421875,64.7437515258789
1659103347567923000,6.2419228515625,-244.03126525878906,1119.50634765625,64.80000305175781
1659103347577923000,6.251923095703125,-244.46250915527344,1119.1500244140625,64.78125
1659103347587923000,6.2619228515625,-244.29376220703125,1119.1688232421875,64.80000305175781
1659103347597923000,6.271923095703125,-244.1437530517578,1119.2437744140625,64.96875
1659103347607923000,6.2819228515625,-244.01251220703125,1119.1875,65.0625
1659103347617923000,6.291923095703125,-244.01251220703125,1119.28125,64.89375305175781
1659103347627923000,6.3019228515625,-243.6750030517578,1119.3375244140625,65.32500457763672
1659103347637923000,6.311923095703125,-243.46876525878906,1119,65.4375
1659103347647923000,6.3219228515625,-243.4875030517578,1118.94384765625,65.625
1659103347657923000,6.331923095703125,-243.3000030517578,1119.5438232421875,65.66250610351562
1659103347667923000,6.3419228515625,-243.37501525878906,1119.581298828125,65.70000457763672
1659103347677923000,6.351923095703125,-243.4875030517578,1119.487548828125,65.73750305175781
1659103347687923000,6.3619228515625,-243.56251525878906,1119.581298828125,65.625
1659103347697923000,6.371923095703125,-243.56251525878906,1119.375,65.71875
1659103347707923000,6.3819228515625,-243.7687530517578,1119.1688232421875,65.4375
1659103347717923000,6.391923095703125,-244.29376220703125,1119.13134765625,65.41875457763672
1659103347727923000,6.4019228515625,-243.90000915527344,1119.22509765625,65.55000305175781
1659103347737923000,6.411923095703125,-243.61875915527344,1119.09375,65.45625305175781
1659103347747923000,6.4219228515625,-243.65626525878906,1119.1688232421875,65.4375
1659103347757923000,6.431923095703125,-243.61875915527344,1119,65.19375610351562
1659103347767923000,6.4419228515625,-243.61875915527344,1119.09375,65.32500457763672
1659103347777923000,6.451923095703125,-243.88125610351562,1119.018798828125,65.1187515258789
1659103347787923000,6.4619228515625,-243.93751525878906,1118.831298828125,65.2125015258789
1659103347797923000,6.471923095703125,-243.75001525878906,1119.1688232421875,65.00625610351562
1659103347807923000,6.4819228515625,-243.80625915527344,1119.4312744140625,64.6875
1659103347817923000,6.491923095703125,-243.88125610351562,1119.7125244140625,64.53750610351562
1659103347827923000,6.5019228515625,-243.69375610351562,1119.65625,64.51875305175781
1659103347837923000,6.511923095703125,-243.6750030517578,1119.768798828125,64.59375
1659103347847923000,6.5219228515625,-243.52500915527344,1119.7313232421875,64.59375
1659103347857923000,6.531923095703125,-243.54376220703125,1119.5250244140625,64.95000457763672
1659103347867923000,6.5419228515625,-243.7687530517578,1119.375,64.98750305175781
1659103347877923000,6.551923095703125,-243.75001525878906,1119.60009765625,65.0250015258789
1659103347887923000,6.5619228515625,-243.80625915527344,1119.41259765625,65.0250015258789
1659103347897923000,6.571923095703125,-243.88125610351562,1119.22509765625,65.08125305175781
1659103347907923000,6.5819228515625,-244.03126525878906,1119.22509765625,65.0250015258789
1659103347917923000,6.591923095703125,-243.91876220703125,1119.22509765625,65.0625
1659103347927923000,6.6019228515625,-244.10626220703125,1119.28125,64.98750305175781
1659103347937923000,6.611923095703125,-244.18125915527344,1119.206298828125,65.17500305175781
1659103347947923000,6.6219228515625,-243.7687530517578,1119.5625,64.95000457763672
1659103347957923000,6.631923095703125,-243.56251525878906,1119.41259765625,65.04375457763672
1659103347967923000,6.6419228515625,-243.3937530517578,1119.581298828125,65.23125457763672
1659103347977923000,6.651923095703125,-243.41250610351562,1119.7313232421875,65.15625
1659103347987923000,6.6619228515625,-243.3000030517578,1119.8062744140625,65.2125015258789
1659103347997923000,6.671923095703125,-243.41250610351562,1119.768798828125,65.4000015258789
1659103348007923000,6.6819228515625,-243.54376220703125,1119.375,65.34375
1659103348017923000,6.691923095703125,-243.35626220703125,1119.50634765625,65.04375457763672
1659103348027923000,6.7019228515625,-243.3000030517578,1119.65625,65.25
1659103348037923000,6.711923095703125,-243.45001220703125,1119.5438232421875,65.25
1659103348047923000,6.7219228515625,-243.56251525878906,1119.7313232421875,65.23125457763672
1659103348057923000,6.731923095703125,-243.52500915527344,1119.6187744140625,65.23125457763672
1659103348067923000,6.7419228515625,-243.69375610351562,1119.75,65.25
1659103348077923000,6.751923095703125,-243.63751220703125,1119.581298828125,65.08125305175781
1659103348087923000,6.7619228515625,-243.5812530517578,1119.5250244140625,64.9312515258789
1659103348097923000,6.771923095703125,-243.4875030517578,1119.6187744140625,64.8375015258789
1659103348107923000,6.7819228515625,-243.4875030517578,1119.5438232421875,64.78125
1659103348117923000,6.791923095703125,-243.54376220703125,1119.5438232421875,64.8375015258789
1659103348127923000,6.8019228515625,-243.3937530517578,1119.3563232421875,64.89375305175781
1659103348137923000,6.811923095703125,-243.22500610351562,1119.1875,65.08125305175781
1659103348147923000,6.8219228515625,-243.13125610351562,1119.09375,65.17500305175781
1659103348157923000,6.831923095703125,-243.31875610351562,1119.1500244140625,65.0625
1659103348167923000,6.8419228515625,-243.18751525878906,1119.46875,65.25
1659103348177923000,6.851923095703125,-242.9250030517578,1119.60009765625,65.4375
1659103348187923000,6.8619228515625,-243.33750915527344,1119.5625,65.19375610351562
1659103348197923000,6.871923095703125,-243.28126525878906,1119.6375732421875,65.08125305175781
1659103348207923000,6.8819228515625,-243.63751220703125,1119.75,65.00625610351562
1659103348217923000,6.891923095703125,-243.4875030517578,1120.1063232421875,64.81875610351562
1659103348227923000,6.9019228515625,-243.65626525878906,1119.84375,64.72500610351562
1659103348237923000,6.911923095703125,-243.45001220703125,1119.84375,64.5
1659103348247923000,6.9219228515625,-243.52500915527344,1119.9000244140625,64.5562515258789
1659103348257923000,6.931923095703125,-243.9562530517578,1119.8062744140625,64.40625
1659103348267923000,6.9419228515625,-243.73126220703125,1119.675048828125,64.61250305175781
1659103348277923000,6.951923095703125,-243.82501220703125,1119.69384765625,64.6875
1659103348287923000,6.9619228515625,-243.69375610351562,1119.3563232421875,64.875
1659103348297923000,6.971923095703125,-244.0500030517578,1119,65.00625610351562
1659103348307923000,6.9819228515625,-244.08750915527344,1118.7938232421875,64.76250457763672
1659103348317923000,6.991923095703125,-244.40626525878906,1118.47509765625,65.28750610351562
1659103348327923000,7.0019228515625,-244.63125610351562,1118.3062744140625,65.51250457763672
1659103348337923000,7.011923095703125,-244.5187530517578,1118.19384765625,65.4375
1659103348347923000,7.0219228515625,-244.5187530517578,1118.38134765625,65.34375
1659103348357923000,7.031923095703125,-244.35000610351562,1118.362548828125,65.28750610351562
1659103348367923000,7.0419228515625,-244.2375030517578,1118.53125,65.0250015258789
1659103348377923000,7.051923095703125,-244.08750915527344,1118.625,64.89375305175781
1659103348387923000,7.0619228515625,-244.16250610351562,1118.4000244140625,65.08125305175781
1659103348397923000,7.071923095703125,-244.1437530517578,1118.831298828125,64.8375015258789
1659103348407923000,7.0819228515625,-243.84376525878906,1118.8875732421875,64.53750610351562
1659103348417923000,7.091923095703125,-243.97500610351562,1118.9813232421875,64.91250610351562
1659103348427923000,7.1019228515625,-244.06875610351562,1118.9813232421875,64.875
1659103348437923000,7.111923095703125,-244.03126525878906,1119,64.8375015258789
1659103348447923000,7.1219228515625,-244.08750915527344,1119.13134765625,64.80000305175781
1659103348457923000,7.131923095703125,-244.5187530517578,1118.9625244140625,64.8375015258789
1659103348467923000,7.1419228515625,-244.29376220703125,1119.46875,64.8375015258789
1659103348477923000,7.151923095703125,-244.18125915527344,1119.4312744140625,64.81875610351562
1659103348487923000,7.1619228515625,-243.9562530517578,1119.375,64.7437515258789
1659103348497923000,7.171923095703125,-243.71250915527344,1119.5250244140625,64.5
1659103348507923000,7.1819228515625,-243.82501220703125,1119.69384765625,64.6500015258789
1659103348517923000,7.191923095703125,-243.80625915527344,1119.581298828125,64.72500610351562
1659103348527923000,7.2019228515625,-243.78750610351562,1119.31884765625,64.5562515258789
1659103348537923000,7.211923095703125,-243.60000610351562,1119.1688232421875,64.6500015258789
1659103348547923000,7.2219228515625,-243.69375610351562,1119.1875,64.76250457763672
1659103348557923000,7.231923095703125,-243.63751220703125,1119.375,64.6500015258789
1659103348567923000,7.2419228515625,-243.84376525878906,1119.375,64.72500610351562
1659103348577923000,7.251923095703125,-243.84376525878906,1119.300048828125,64.76250457763672
1659103348587923000,7.2619228515625,-243.73126220703125,1119.0562744140625,64.7437515258789
1659103348597923000,7.271923095703125,-244.01251220703125,1119.28125,64.8375015258789
1659103348607923000,7.2819228515625,-244.06875610351562,1119.1875,65.2125015258789
1659103348617923000,7.291923095703125,-243.8625030517578,1119.393798828125,65.00625610351562
1659103348627923000,7.3019228515625,-243.99375915527344,1119.1688232421875,65.23125457763672
1659103348637923000,7.311923095703125,-244.03126525878906,1119,65.4000015258789
1659103348647923000,7.3219228515625,-243.88125610351562,1119.03759765625,65.28750610351562
1659103348657923000,7.331923095703125,-244.01251220703125,1119.1688232421875,65.17500305175781
1659103348667923000,7.3419228515625,-244.01251220703125,1119.03759765625,65.19375610351562
1659103348677923000,7.351923095703125,-243.5812530517578,1118.85009765625,65.15625
1659103348687923000,7.3619228515625,-243.26251220703125,1119.03759765625,65.10000610351562
1659103348697923000,7.371923095703125,-243.31875610351562,1119.13134765625,65.26875305175781
1659103348707923000,7.3819228515625,-243.50625610351562,1119.0562744140625,65.13750457763672
1659103348717923000,7.391923095703125,-243.26251220703125,1118.94384765625,64.875
1659103348727923000,7.4019228515625,-243.52500915527344,1119.09375,65.19375610351562
1659103348737923000,7.411923095703125,-243.1125030517578,1119.0562744140625,65.19375610351562
1659103348747923000,7.4219228515625,-242.98126220703125,1119.41259765625,65.00625610351562
1659103348757923000,7.431923095703125,-243.41250610351562,1119.5250244140625,65.00625610351562
1659103348767923000,7.4419228515625,-243.46876525878906,1119.4312744140625,65.34375
1659103348777923000,7.451923095703125,-243.35626220703125,1119.7125244140625,65.4000015258789
1659103348787923000,7.4619228515625,-242.90626525878906,1119.956298828125,65.15625
1659103348797923000,7.471923095703125,-243.0187530517578,1120.050048828125,65.4375
1659103348807923000,7.4819228515625,-242.79376220703125,1120.2000732421875,65.32500457763672
1659103348817923000,7.491923095703125,-243.3937530517578,1119.9375,65.26875305175781
1659103348827923000,7.5019228515625,-243.50625610351562,1119.84375,65.2125015258789
1659103348837923000,7.511923095703125,-243.2062530517578,1119.8250732421875,65.0625
1659103348847923000,7.5219228515625,-243.33750915527344,1120.06884765625,64.72500610351562
1659103348857923000,7.531923095703125,-243.24375915527344,1119.88134765625,64.72500610351562
1659103348867923000,7.5419228515625,-243.3000030517578,1119.9188232421875,64.81875610351562
1659103348877923000,7.551923095703125,-243.28126525878906,1119.88134765625,64.8375015258789
1659103348887923000,7.5619228515625,-243.63751220703125,1119.22509765625,64.38750457763672
1659103348897923000,7.571923095703125,-243.45001220703125,1119.1875,64.63125610351562
1659103348907923000,7.5819228515625,-243.05625915527344,1119.018798828125,64.81875610351562
1659103348917923000,7.591923095703125,-243.24375915527344,1118.831298828125,65.15625
1659103348927923000,7.6019228515625,-243.37501525878906,1118.737548828125,65.28750610351562
1659103348937923000,7.611923095703125,-243.31875610351562,1118.8125,65.19375610351562
1659103348947923000,7.6219228515625,-243.41250610351562,1118.94384765625,65.1187515258789
1659103348957923000,7.631923095703125,-243.75001525878906,1118.47509765625,65.45625305175781
1659103348967923000,7.6419228515625,-243.65626525878906,1119.03759765625,65.71875
1659103348977923000,7.651923095703125,-243.9562530517578,1119.03759765625,65.3062515258789
1659103348987923000,7.6619228515625,-244.2375030517578,1119.018798828125,65.4375
1659103348997923000,7.671923095703125,-244.10626220703125,1119.206298828125,65.25
1659103349007923000,7.6819228515625,-244.1437530517578,1119.2625732421875,65.1187515258789
1659103349017923000,7.691923095703125,-244.66876220703125,1119.112548828125,65.26875305175781
1659103349027923000,7.7019228515625,-244.53750610351562,1118.71875,65.10000610351562
1659103349037923000,7.711923095703125,-244.08750915527344,1119.375,64.85625457763672
1659103349047923000,7.7219228515625,-243.84376525878906,1119.31884765625,65.0250015258789
1659103349057923000,7.731923095703125,-243.5812530517578,1119.65625,65.34375
1659103349067923000,7.7419228515625,-243.52500915527344,1119.9188232421875,65.32500457763672
1659103349077923000,7.751923095703125,-243.60000610351562,1119.97509765625,65.19375610351562
1659103349087923000,7.7619228515625,-243.45001220703125,1119.9375,65.1187515258789
1659103349097923000,7.771923095703125,-243.09376525878906,1119.46875,65.04375457763672
1659103349107923000,7.7819228515625,-243.18751525878906,1119.9375,65.28750610351562
1659103349117923000,7.791923095703125,-243.7687530517578,1119.5250244140625,64.9312515258789
1659103349127923000,7.8019228515625,-244.20001220703125,1119.3563232421875,65.04375457763672
1659103349137923000,7.811923095703125,-243.91876220703125,1119.300048828125,65.13750457763672
1659103349147923000,7.8219228515625,-244.27500915527344,1119.1875,65.0250015258789
1659103349157923000,7.831923095703125,-244.12501525878906,1119.1500244140625,65.10000610351562
1659103349167923000,7.8419228515625,-244.1437530517578,1119.0562744140625,65.34375
1659103349177923000,7.851923095703125,-243.91876220703125,1119.5438232421875,65.08125305175781
1659103349187923000,7.8619228515625,-243.80625915527344,1119.375,65.10000610351562
1659103349197923000,7.871923095703125,-243.33750915527344,1119.84375,65.32500457763672
1659103349207923000,7.8819228515625,-242.98126220703125,1119.97509765625,65.0625
1659103349217923000,7.891923095703125,-243.09376525878906,1119.9937744140625,64.98750305175781
1659103349227923000,7.9019228515625,-242.96250915527344,1119.8062744140625,64.89375305175781
1659103349237923000,7.911923095703125,-243.46876525878906,1119.69384765625,65.0625
1659103349247923000,7.9219228515625,-243.60000610351562,1119.78759765625,64.875
1659103349257923000,7.931923095703125,-243.73126220703125,1119.69384765625,64.8375015258789
1659103349267923000,7.9419228515625,-243.99375915527344,1119.65625,64.89375305175781
1659103349277923000,7.951923095703125,-243.8625030517578,1119.6375732421875,64.85625457763672
1659103349287923000,7.9619228515625,-243.88125610351562,1119.6187744140625,65.04375457763672
1659103349297923000,7.971923095703125,-244.10626220703125,1119.6187744140625,64.95000457763672
1659103349307923000,7.9819228515625,-244.25625610351562,1119.28125,65.1187515258789
1659103349317923000,7.991923095703125,-244.48126220703125,1119.1688232421875,64.76250457763672
1659103349327923000,8.0019228515625,-244.3312530517578,1119.0750732421875,64.66875457763672
1659103349337923000,8.011923095703125,-244.46250915527344,1119.2437744140625,65.08125305175781
1659103349347923000,8.0219228515625,-244.16250610351562,1119.4500732421875,65.10000610351562
1659103349357923000,8.031923095703124,-244.29376220703125,1119.4500732421875,64.96875
1659103349367923000,8.0419228515625,-244.48126220703125,1119.50634765625,64.96875
1659103349377923000,8.051923095703126,-244.63125610351562,1119.3563232421875,65.17500305175781
1659103349387923000,8.0619228515625,-244.63125610351562,1119.5438232421875,64.7437515258789
1659103349397923000,8.071923095703125,-244.06875610351562,1119.78759765625,65.04375457763672
1659103349407923000,8.0819228515625,-244.08750915527344,1120.0875244140625,65.13750457763672
1659103349417923000,8.091923095703125,-244.08750915527344,1120.237548828125,64.91250610351562
1659103349427923000,8.1019228515625,-244.29376220703125,1120.125,64.89375305175781
1659103349437923000,8.111923095703125,-244.4250030517578,1119.84375,65.04375457763672
1659103349447923000,8.1219228515625,-244.50001525878906,1119.375,64.89375305175781
1659103349457923000,8.131923095703126,-244.25625610351562,1119.3375244140625,64.8375015258789
1659103349467923000,8.1419228515625,-243.99375915527344,1119.5250244140625,65.0625
1659103349477923000,8.151923095703125,-243.84376525878906,1119.41259765625,64.98750305175781
1659103349487923000,8.1619228515625,-243.82501220703125,1119.3375244140625,64.96875
1659103349497923000,8.171923095703125,-243.6750030517578,1119.13134765625,65.15625
1659103349507923000,8.1819228515625,-243.22500610351562,1119.0562744140625,65.19375610351562
1659103349517923000,8.191923095703125,-243.15000915527344,1119.0562744140625,65.23125457763672
1659103349527923000,8.2019228515625,-242.8312530517578,1119.1875,65.15625
1659103349537923000,8.211923095703124,-242.70001220703125,1119.1875,64.78125
1659103349547923000,8.2219228515625,-242.79376220703125,1119.2625732421875,64.95000457763672
1659103349557923000,8.231923095703126,-243.0187530517578,1119.2625732421875,64.98750305175781
1659103349567923000,8.2419228515625,-243.1125030517578,1119.13134765625,65.1187515258789
1659103349577923000,8.251923095703125,-243.33750915527344,1119.09375,64.96875
1659103349587923000,8.2619228515625,-243.56251525878906,1119.1875,64.8375015258789
1659103349597923000,8.271923095703125,-243.37501525878906,1119.13134765625,64.80000305175781
1659103349607923000,8.2819228515625,-243.60000610351562,1119.393798828125,64.9312515258789
1659103349617923000,8.291923095703124,-243.60000610351562,1119.41259765625,65.0625
1659103349627923000,8.3019228515625,-243.61875915527344,1119.1875,64.875
1659103349637923000,8.311923095703126,-243.54376220703125,1119.1500244140625,64.875
1659103349647923000,8.3219228515625,-243.43125915527344,1119.2437744140625,64.95000457763672
1659103349657923000,8.331923095703125,-243.22500610351562,1119.0750732421875,65.0625
1659103349667923000,8.3419228515625,-243.22500610351562,1119.2625732421875,65.19375610351562
1659103349677923000,8.351923095703125,-243.18751525878906,1119.65625,65.13750457763672
1659103349687923000,8.3619228515625,-242.98126220703125,1119.8250732421875,64.98750305175781
1659103349697923000,8.371923095703124,-243.09376525878906,1120.1063232421875,65.1187515258789
1659103349707923000,8.3819228515625,-243.00001525878906,1120.3687744140625,65.04375457763672
1659103349717923000,8.391923095703126,-242.9250030517578,1120.4625244140625,64.9312515258789
1659103349727923000,8.4019228515625,-242.75625610351562,1120.425048828125,64.9312515258789
1659103349737923000,8.411923095703125,-243.22500610351562,1120.3125,65.04375457763672
1659103349747923000,8.4219228515625,-243.43125915527344,1120.1812744140625,65.17500305175781
1659103349757923000,8.431923095703125,-243.65626525878906,1120.0875244140625,65.0625
1659103349767923000,8.4419228515625,-243.61875915527344,1119.956298828125,65.13750457763672
1659103349777923000,8.451923095703124,-243.60000610351562,1119.8062744140625,65.08125305175781
1659103349787923000,8.4619228515625,-243.60000610351562,1119.9000244140625,65.23125457763672
1659103349797923000,8.471923095703126,-243.43125915527344,1119.8062744140625,65.4375
1659103349807923000,8.4819228515625,-243.61875915527344,1119.7125244140625,65.15625
1659103349817923000,8.491923095703125,-243.26251220703125,1119.9000244140625,64.91250610351562
1659103349827923000,8.5019228515625,-243.28126525878906,1119.75,64.7437515258789
1659103349837923000,8.511923095703125,-243.1125030517578,1119.7313232421875,64.95000457763672
1659103349847923000,8.5219228515625,-243.0187530517578,1119.581298828125,64.85625457763672
1659103349857923000,8.531923095703124,-243.00001525878906,1119.69384765625,65.0625
1659103349867923000,8.5419228515625,-243.13125610351562,1119.393798828125,65.2125015258789
1659103349877923000,8.551923095703126,-243.35626220703125,1119.41259765625,64.95000457763672
1659103349887923000,8.5619228515625,-243.5812530517578,1119.28125,65.0250015258789
1659103349897923000,8.571923095703125,-243.26251220703125,1119.018798828125,64.98750305175781
1659103349907923000,8.5819228515625,-243.16876220703125,1119.1500244140625,64.96875
1659103349917923000,8.591923095703125,-242.88751220703125,1119.13134765625,64.8375015258789
1659103349927923000,8.6019228515625,-243.09376525878906,1119.4312744140625,64.95000457763672
1659103349937923000,8.611923095703125,-243.28126525878906,1119.018798828125,64.57500457763672
1659103349947923000,8.6219228515625,-243.0187530517578,1119.28125,64.53750610351562
1659103349957923000,8.631923095703126,-243.41250610351562,1119.09375,64.7437515258789
1659103349967923000,8.6419228515625,-243.00001525878906,1119.1500244140625,64.78125
1659103349977923000,8.651923095703125,-243.37501525878906,1119.6187744140625,64.8375015258789
1659103349987923000,8.6619228515625,-243.31875610351562,1119.69384765625,64.95000457763672
1659103349997923000,8.671923095703125,-243.65626525878906,1119.6187744140625,64.96875
1659103350007923000,8.6819228515625,-243.8625030517578,1119,65.36250305175781
1659103350017923000,8.691923095703125,-243.18751525878906,1119.206298828125,65.75625610351562
1659103350027923000,8.7019228515625,-243.26251220703125,1119.1500244140625,65.9625015258789
1659103350037923000,8.711923095703124,-243.09376525878906,1119.0750732421875,65.88750457763672
1659103350047923000,8.7219228515625,-243.43125915527344,1119,65.90625
1659103350057923000,8.731923095703126,-243.31875610351562,1118.7938232421875,65.88750457763672
1659103350067923000,8.7419228515625,-243.16876220703125,1118.5125732421875,65.70000457763672
1659103350077923000,8.751923095703125,-243.07501220703125,1118.456298828125,65.73750305175781
1659103350087923000,8.7619228515625,-242.70001220703125,1118.7750244140625,65.25
1659103350097923000,8.771923095703125,-242.98126220703125,1118.9813232421875,65.2125015258789
1659103350107923000,8.7819228515625,-243.09376525878906,1118.8687744140625,64.76250457763672
1659103350117923000,8.791923095703124,-242.86875915527344,1119.1500244140625,64.80000305175781
1659103350127923000,8.8019228515625,-242.81251525878906,1119.50634765625,64.78125
1659103350137923000,8.811923095703126,-242.81251525878906,1119.69384765625,64.80000305175781
1659103350147923000,8.8219228515625,-243.16876220703125,1119.5250244140625,65.10000610351562
1659103350157923000,8.831923095703125,-243.73126220703125,1119.09375,65.32500457763672
1659103350167923000,8.8419228515625,-243.73126220703125,1119.0562744140625,65.38125610351562
1659103350177923000,8.851923095703125,-243.90000915527344,1118.831298828125,65.3062515258789
1659103350187923000,8.8619228515625,-243.69375610351562,1118.66259765625,65.5875015258789
1659103350197923000,8.871923095703124,-243.71250915527344,1118.831298828125,65.4000015258789
1659103350207923000,8.8819228515625,-243.56251525878906,1118.625,65.1187515258789
1659103350217923000,8.891923095703126,-243.46876525878906,1118.47509765625,65.2125015258789
1659103350227923000,8.9019228515625,-243.41250610351562,1118.85009765625,64.89375305175781
1659103350237923000,8.911923095703125,-243.1125030517578,1119.41259765625,64.5562515258789
1659103350247923000,8.9219228515625,-243.33750915527344,1119.5250244140625,64.80000305175781
1659103350257923000,8.931923095703125,-243.3000030517578,1119.75,64.91250610351562
1659103350267923000,8.9419228515625,-243.6750030517578,1120.06884765625,64.875
1659103350277923000,8.951923095703124,-243.37501525878906,1119.8250732421875,65.08125305175781
1659103350287923000,8.9619228515625,-243.2062530517578,1119.84375,65.45625305175781
1659103350297923000,8.971923095703126,-243.35626220703125,1119.69384765625,65.4937515258789
1659103350307923000,8.9819228515625,-243.2062530517578,1119.675048828125,65.4937515258789
1659103350317923000,8.991923095703125,-243.2062530517578,1119.50634765625,65.9625015258789
1659103350327923000,9.0019228515625,-243.18751525878906,1119.46875,65.75625610351562
1659103350337923000,9.011923095703125,-243.07501220703125,1119.375,65.51250457763672
1659103350347923000,9.0219228515625,-242.62501525878906,1119.13134765625,65.4375
1659103350357923000,9.031923095703124,-242.85000610351562,1119.1875,65.34375
1659103350367923000,9.0419228515625,-243.28126525878906,1119.112548828125,65.28750610351562
1659103350377923000,9.051923095703126,-243.28126525878906,1119.112548828125,65.19375610351562
1659103350387923000,9.0619228515625,-243.43125915527344,1119.0562744140625,65.3062515258789
1659103350397923000,9.071923095703125,-243.09376525878906,1119.1500244140625,64.98750305175781
1659103350407923000,9.0819228515625,-243.00001525878906,1119.1500244140625,65.13750457763672
1659103350417923000,9.091923095703125,-243.33750915527344,1119.3563232421875,65.4000015258789
1659103350427923000,9.1019228515625,-243.78750610351562,1119.675048828125,65.60625457763672
1659103350437923000,9.111923095703125,-243.97500610351562,1119.4500732421875,65.85000610351562
1659103350447923000,9.1219228515625,-243.75001525878906,1119.46875,66
1659103350457923000,9.131923095703126,-243.52500915527344,1119.69384765625,66.0562515258789
1659103350467923000,9.1419228515625,-243.35626220703125,1119.7313232421875,65.92500305175781
1659103350477923000,9.151923095703125,-243.60000610351562,1119.6375732421875,65.8687515258789
1659103350487923000,9.1619228515625,-243.69375610351562,1119.6375732421875,65.8687515258789
1659103350497923000,9.171923095703125,-243.35626220703125,1119.3563232421875,65.73750305175781
1659103350507923000,9.1819228515625,-243.1125030517578,1119.3563232421875,65.5875015258789
1659103350517923000,9.191923095703125,-243.05625915527344,1119.581298828125,65.32500457763672
1659103350527923000,9.2019228515625,-243.03750610351562,1119.60009765625,65.10000610351562
1659103350537923000,9.211923095703124,-243.41250610351562,1119.65625,65.1187515258789
1659103350547923000,9.2219228515625,-243.45001220703125,1119.8062744140625,65.23125457763672
1659103350557923000,9.231923095703126,-243.31875610351562,1120.1063232421875,65.41875457763672
1659103350567923000,9.2419228515625,-243.18751525878906,1120.03125,65.17500305175781
1659103350577923000,9.251923095703125,-243.26251220703125,1120.125,65.38125610351562
1659103350587923000,9.2619228515625,-243.43125915527344,1120.03125,65.55000305175781
1659103350597923000,9.271923095703125,-243.18751525878906,1120.143798828125,65.64375305175781
1659103350607923000,9.2819228515625,-243.07501220703125,1120.16259765625,65.4937515258789
1659103350617923000,9.291923095703124,-242.90626525878906,1120.35009765625,65.47500610351562
1659103350627923000,9.3019228515625,-242.98126220703125,1120.06884765625,65.36250305175781
1659103350637923000,9.311923095703126,-242.94375610351562,1119.69384765625,65.08125305175781
1659103350647923000,9.3219228515625,-243.00001525878906,1119.7125244140625,65.36250305175781
1659103350657923000,9.331923095703125,-243.46876525878906,1119.3563232421875,65.36250305175781
1659103350667923000,9.3419228515625,-243.31875610351562,1119.13134765625,65.0250015258789
1659103350677923000,9.351923095703125,-243.37501525878906,1119.03759765625,65.04375457763672
1659103350687923000,9.3619228515625,-243.50625610351562,1119.03759765625,65.32500457763672
1659103350697923000,9.371923095703124,-243.43125915527344,1118.831298828125,65.2125015258789
1659103350707923000,9.3819228515625,-243.28126525878906,1119.0562744140625,65.13750457763672
1659103350717923000,9.391923095703126,-243.6750030517578,1118.8125,65.55000305175781
1659103350727923000,9.4019228515625,-243.78750610351562,1118.8875732421875,65.34375
1659103350737923000,9.411923095703125,-243.54376220703125,1119.2437744140625,65.08125305175781
1659103350747923000,9.4219228515625,-243.69375610351562,1119.5438232421875,65.15625
1659103350757923000,9.431923095703125,-243.75001525878906,1119.65625,65.04375457763672
1659103350767923000,9.4419228515625,-243.56251525878906,1119.5625,65.10000610351562
1659103350777923000,9.451923095703124,-243.71250915527344,1119.1688232421875,65.71875
1659103350787923000,9.4619228515625,-243.80625915527344,1119.018798828125,65.83125305175781
1659103350797923000,9.471923095703126,-243.78750610351562,1119.2625732421875,65.53125
1659103350807923000,9.4819228515625,-243.75001525878906,1119.28125,65.625
1659103350817923000,9.491923095703125,-243.3937530517578,1119.4500732421875,65.625
1659103350827923000,9.5019228515625,-243.16876220703125,1119.2625732421875,65.70000457763672
1659103350837923000,9.511923095703125,-243.15000915527344,1119.0750732421875,65.83125305175781
1659103350847923000,9.5219228515625,-243.61875915527344,1118.85009765625,65.19375610351562
1659103350857923000,9.531923095703124,-243.80625915527344,1119.1688232421875,64.57500457763672
1659103350867923000,9.5419228515625,-243.99375915527344,1118.8125,64.51875305175781
1659103350877923000,9.551923095703126,-243.80625915527344,1118.8687744140625,64.51875305175781
1659103350887923000,9.5619228515625,-243.4875030517578,1118.925048828125,64.51875305175781
1659103350897923000,9.571923095703125,-243.63751220703125,1118.831298828125,64.42500305175781
1659103350907923000,9.5819228515625,-243.84376525878906,1119.018798828125,64.5562515258789
1659103350917923000,9.591923095703125,-244.3312530517578,1118.8125,64.66875457763672
1659103350927923000,9.6019228515625,-244.16250610351562,1119.1875,65.15625
1659103350937923000,9.611923095703125,-243.90000915527344,1119.46875,65.15625
1659103350947923000,9.6219228515625,-243.80625915527344,1119.9000244140625,65.4000015258789
1659103350957923000,9.631923095703126,-243.73126220703125,1120.03125,65.25
1659103350967923000,9.6419228515625,-244.01251220703125,1120.1812744140625,65.25
1659103350977923000,9.651923095703125,-244.06875610351562,1120.050048828125,65.41875457763672
1659103350987923000,9.6619228515625,-244.10626220703125,1119.375,65.75625610351562
1659103350997923000,9.671923095703125,-243.56251525878906,1119.6187744140625,65.60625457763672
1659103351007923000,9.6819228515625,-243.41250610351562,1119.581298828125,65.55000305175781
1659103351017923000,9.691923095703125,-243.2062530517578,1119.46875,65.60625457763672
1659103351027923000,9.7019228515625,-243.07501220703125,1119.41259765625,65.32500457763672
1659103351037923000,9.711923095703124,-243.07501220703125,1119.4312744140625,65.56875610351562
1659103351047923000,9.7219228515625,-243.0187530517578,1119.22509765625,65.5875015258789
1659103351057923000,9.731923095703126,-243.18751525878906,1118.75634765625,65.7750015258789
1659103351067923000,9.7419228515625,-243.03750610351562,1119.28125,65.26875305175781
1659103351077923000,9.751923095703125,-243.0187530517578,1119.3563232421875,65.10000610351562
1659103351087923000,9.7619228515625,-243.0187530517578,1119.31884765625,65.23125457763672
1659103351097923000,9.771923095703125,-243.24375915527344,1119.206298828125,65.15625
1659103351107923000,9.7819228515625,-243.24375915527344,1119.393798828125,65.28750610351562
1659103351117923000,9.791923095703124,-243.26251220703125,1119.393798828125,65.36250305175781
1659103351127923000,9.8019228515625,-243.54376220703125,1119.0750732421875,65.15625
1659103351137923000,9.811923095703126,-243.35626220703125,1119.5438232421875,64.8375015258789
1659103351147923000,9.8219228515625,-243.33750915527344,1119.5625,64.8375015258789
1659103351157923000,9.831923095703125,-243.24375915527344,1119.75,65.0250015258789
1659103351167923000,9.8419228515625,-243.3937530517578,1119.9937744140625,65.17500305175781
1659103351177923000,9.851923095703125,-243.3000030517578,1119.78759765625,65.25
1659103351187923000,9.8619228515625,-243.33750915527344,1119.65625,65.17500305175781
1659103351197923000,9.871923095703124,-243.22500610351562,1119.581298828125,65.25
1659103351207923000,9.8819228515625,-242.7375030517578,1119.862548828125,65.38125610351562
1659103351217923000,9.891923095703126,-242.68125915527344,1119.75,65.53125
1659103351227923000,9.9019228515625,-242.96250915527344,1119.9000244140625,65.73750305175781
1659103351237923000,9.911923095703125,-243.28126525878906,1119.9188232421875,65.64375305175781
1659103351247923000,9.9219228515625,-243.13125610351562,1119.69384765625,65.4937515258789
1659103351257923000,9.931923095703125,-243.28126525878906,1119.8062744140625,65.51250457763672
1659103351267923000,9.9419228515625,-243.3937530517578,1119.7313232421875,65.5875015258789
1659103351277923000,9.951923095703124,-243.52500915527344,1119.78759765625,65.4375
1659103351287923000,9.9619228515625,-243.82501220703125,1119.7313232421875,65.38125610351562
1659103351297923000,9.971923095703126,-243.91876220703125,1119.768798828125,65.25
1659103351307923000,9.9819228515625,-243.50625610351562,1119.6187744140625,65.17500305175781
1659103351317923000,9.991923095703125,-243.54376220703125,1119.4500732421875,65.3062515258789
1659103351327923000,10.0019228515625,-243.45001220703125,1119.3563232421875,65.2125015258789
1659103351337923000,10.011923095703125,-243.69375610351562,1119.018798828125,65.53125
1659103351347923000,10.0219228515625,-243.69375610351562,1119.28125,65.51250457763672
1659103351357923000,10.031923095703124,-243.52500915527344,1119.13134765625,65.51250457763672
1659103351367923000,10.0419228515625,-243.45001220703125,1119.2437744140625,65.625
1659103351377923000,10.051923095703126,-243.35626220703125,1119.3563232421875,65.7750015258789
1659103351387923000,10.0619228515625,-243.50625610351562,1119.393798828125,65.7750015258789
1659103351397923000,10.071923095703125,-243.33750915527344,1119.487548828125,65.625
1659103351407923000,10.0819228515625,-243.71250915527344,1119.2437744140625,65.51250457763672
1659103351417923000,10.091923095703125,-243.69375610351562,1119.487548828125,65.19375610351562
1659103351427923000,10.1019228515625,-243.60000610351562,1119.1500244140625,65.2125015258789
1659103351437923000,10.111923095703125,-243.99375915527344,1119.112548828125,65.0625
1659103351447923000,10.1219228515625,-244.06875610351562,1119.09375,65.04375457763672
1659103351457923000,10.131923095703126,-244.06875610351562,1119.1500244140625,65.13750457763672
1659103351467923000,10.1419228515625,-244.1437530517578,1119.1688232421875,65.1187515258789
1659103351477923000,10.151923095703125,-244.35000610351562,1118.7000732421875,65.2125015258789
1659103351487923000,10.1619228515625,-244.1437530517578,1119,65.36250305175781
1659103351497923000,10.171923095703125,-243.93751525878906,1119.300048828125,65.4937515258789
1659103351507923000,10.1819228515625,-244.08750915527344,1119.41259765625,65.38125610351562
1659103351517923000,10.191923095703125,-243.97500610351562,1119.6375732421875,65.3062515258789
1659103351527923000,10.2019228515625,-244.0500030517578,1119.581298828125,65.0625
1659103351537923000,10.211923095703124,-243.78750610351562,1119.5438232421875,64.7437515258789
1659103351547923000,10.2219228515625,-244.18125915527344,1119.206298828125,64.70625305175781
1659103351557923000,10.231923095703126,-244.12501525878906,1119.60009765625,64.66875457763672
1659103351567923000,10.2419228515625,-244.10626220703125,1119.4312744140625,64.7437515258789
1659103351577923000,10.251923095703125,-243.97500610351562,1119.112548828125,64.6875
1659103351587923000,10.2619228515625,-244.06875610351562,1119.1688232421875,64.76250457763672
1659103351597923000,10.271923095703125,-243.90000915527344,1119.09375,64.91250610351562
1659103351607923000,10.2819228515625,-243.61875915527344,1119.300048828125,65.23125457763672
1659103351617923000,10.291923095703124,-244.29376220703125,1118.7000732421875,65.3062515258789
1659103351627923000,10.3019228515625,-243.8625030517578,1119.0750732421875,65.25
1659103351637923000,10.311923095703126,-243.6750030517578,1119.0750732421875,65.28750610351562
1659103351647923000,10.3219228515625,-243.69375610351562,1119.13134765625,65.04375457763672
1659103351657923000,10.331923095703125,-243.78750610351562,1119.300048828125,64.91250610351562
1659103351667923000,10.3419228515625,-243.54376220703125,1119,64.96875
1659103351677923000,10.351923095703125,-243.56251525878906,1119.03759765625,64.875
1659103351687923000,10.3619228515625,-243.73126220703125,1118.85009765625,64.76250457763672
1659103351697923000,10.371923095703124,-243.28126525878906,1119.31884765625,65.00625610351562
1659103351707923000,10.3819228515625,-243.26251220703125,1119.300048828125,65.0250015258789
1659103351717923000,10.391923095703126,-243.52500915527344,1118.925048828125,64.96875
1659103351727923000,10.4019228515625,-243.65626525878906,1118.6812744140625,65.19375610351562
1659103351737923000,10.411923095703125,-243.73126220703125,1118.75634765625,65.08125305175781
1659103351747923000,10.4219228515625,-243.7687530517578,1119.206298828125,65.15625
1659103351757923000,10.431923095703125,-243.7687530517578,1119.28125,65.2125015258789
1659103351767923000,10.4419228515625,-243.54376220703125,1119.28125,65.45625305175781
1659103351777923000,10.451923095703124,-243.4875030517578,1119.50634765625,65.23125457763672
1659103351787923000,10.4619228515625,-243.75001525878906,1118.9813232421875,65.3062515258789
1659103351797923000,10.471923095703126,-243.65626525878906,1119.2625732421875,65.51250457763672
1659103351807923000,10.4819228515625,-243.63751220703125,1119.75,65.36250305175781
1659103351817923000,10.491923095703125,-243.60000610351562,1119.862548828125,65.56875610351562
1659103351827923000,10.5019228515625,-243.37501525878906,1119.487548828125,65.38125610351562
1659103351837923000,10.511923095703125,-243.45001220703125,1119.5625,65.4937515258789
1659103351847923000,10.5219228515625,-243.54376220703125,1119.6375732421875,65.23125457763672
1659103351857923000,10.531923095703124,-243.43125915527344,1119.31884765625,65.32500457763672
1659103351867923000,10.5419228515625,-243.52500915527344,1119.31884765625,65.38125610351562
1659103351877923000,10.551923095703126,-243.37501525878906,1119.46875,65.23125457763672
1659103351887923000,10.5619228515625,-243.22500610351562,1119.2437744140625,65.32500457763672
1659103351897923000,10.571923095703125,-243.16876220703125,1118.90625,65.34375
1659103351907923000,10.5819228515625,-243.61875915527344,1118.71875,65.15625
1659103351917923000,10.591923095703125,-243.5812530517578,1118.3250732421875,65.4000015258789
1659103351927923000,10.6019228515625,-243.65626525878906,1118.47509765625,65.28750610351562
1659103351937923000,10.611923095703125,-244.10626220703125,1118.6812744140625,65.3062515258789
1659103351947923000,10.6219228515625,-243.73126220703125,1119.03759765625,64.95000457763672
1659103351957923000,10.631923095703126,-243.8625030517578,1119.0750732421875,64.6500015258789
1659103351967923000,10.6419228515625,-243.75001525878906,1119.13134765625,64.6875
1659103351977923000,10.651923095703125,-243.63751220703125,1119.3375244140625,64.29375457763672
1659103351987923000,10.6619228515625,-243.45001220703125,1119.65625,64.6875
1659103351997923000,10.671923095703125,-243.56251525878906,1119.65625,64.21875
1659103352007923000,10.6819228515625,-243.84376525878906,1119.31884765625,64.6500015258789
1659103352017923000,10.691923095703125,-243.71250915527344,1119.31884765625,64.70625305175781
1659103352027923000,10.7019228515625,-243.61875915527344,1119.2625732421875,64.85625457763672
1659103352037923000,10.711923095703124,-243.61875915527344,1119.2625732421875,65.26875305175781
1659103352047923000,10.7219228515625,-243.63751220703125,1119.28125,65.25
1659103352057923000,10.731923095703126,-243.5812530517578,1118.94384765625,65.625
1659103352067923000,10.7419228515625,-243.97500610351562,1118.6063232421875,65.90625
1659103352077923000,10.751923095703125,-243.93751525878906,1118.8875732421875,66.22500610351562
1659103352087923000,10.7619228515625,-243.7687530517578,1119.018798828125,66.09375
1659103352097923000,10.771923095703125,-243.69375610351562,1119,66.01875305175781
1659103352107923000,10.7819228515625,-243.63751220703125,1118.9625244140625,66.22500610351562
1659103352117923000,10.791923095703124,-243.54376220703125,1119.0750732421875,66.09375
1659103352127923000,10.8019228515625,-243.6750030517578,1119.13134765625,66.13125610351562
1659103352137923000,10.811923095703126,-243.91876220703125,1119.60009765625,65.88750457763672
1659103352147923000,10.8219228515625,-243.4875030517578,1120.25634765625,65.4937515258789
1659103352157923000,10.831923095703125,-243.65626525878906,1119.75,65.38125610351562
1659103352167923000,10.8419228515625,-243.8625030517578,1119.3375244140625,65.28750610351562
1659103352177923000,10.851923095703125,-244.18125915527344,1119.375,65.36250305175781
1659103352187923000,10.8619228515625,-244.40626525878906,1119.22509765625,65.13750457763672
1659103352197923000,10.871923095703124,-244.76251220703125,1118.9813232421875,65.04375457763672
1659103352207923000,10.8819228515625,-244.87501525878906,1118.34375,65.4937515258789
1659103352217923000,10.891923095703126,-244.74375915527344,1118.081298828125,65.60625457763672
1659103352227923000,10.9019228515625,-244.76251220703125,1117.7625732421875,65.6812515258789
1659103352237923000,10.911923095703125,-244.8937530517578,1117.875,65.71875
1659103352247923000,10.9219228515625,-244.55625915527344,1118.4937744140625,65.75625610351562
1659103352257923000,10.931923095703125,-244.27500915527344,1118.6063232421875,65.5875015258789
1659103352267923000,10.9419228515625,-244.10626220703125,1118.8125,65.85000610351562
1659103352277923000,10.951923095703124,-243.65626525878906,1118.9625244140625,65.98125457763672
1659103352287923000,10.9619228515625,-243.46876525878906,1119.5625,65.47500610351562
1659103352297923000,10.971923095703126,-243.43125915527344,1119.5438232421875,65.41875457763672
1659103352307923000,10.9819228515625,-243.63751220703125,1119.6187744140625,65.36250305175781
1659103352317923000,10.991923095703125,-243.22500610351562,1119.97509765625,65.26875305175781
1659103352327923000,11.0019228515625,-243.3937530517578,1119.9375,65.10000610351562
1659103352337923000,11.011923095703125,-243.28126525878906,1120.0125732421875,65.25
1659103352347923000,11.0219228515625,-243.28126525878906,1120.143798828125,65.19375610351562
1659103352357923000,11.031923095703124,-243.24375915527344,1120.0125732421875,65.19375610351562
1659103352367923000,11.0419228515625,-243.71250915527344,1119.6375732421875,65.4937515258789
1659103352377923000,11.051923095703126,-243.5812530517578,1119.8250732421875,65.53125
1659103352387923000,11.0619228515625,-243.24375915527344,1119.7125244140625,65.38125610351562
1659103352397923000,11.071923095703125,-243.6750030517578,1119.5250244140625,65.4000015258789
1659103352407923000,11.0819228515625,-243.50625610351562,1119.393798828125,65.73750305175781
1659103352417923000,11.091923095703125,-243.2062530517578,1119.1688232421875,65.73750305175781
1659103352427923000,11.1019228515625,-243.22500610351562,1119.018798828125,65.625
1659103352437923000,11.111923095703125,-243.03750610351562,1118.9625244140625,65.625
1659103352447923000,11.1219228515625,-242.56875610351562,1119.2437744140625,65.23125457763672
1659103352457923000,11.131923095703126,-242.75625610351562,1119.2437744140625,65.25
1659103352467923000,11.1419228515625,-243.05625915527344,1118.7750244140625,65.53125
1659103352477923000,11.151923095703125,-242.6437530517578,1118.8875732421875,65.47500610351562
1659103352487923000,11.1619228515625,-242.58750915527344,1118.9813232421875,65.3062515258789
1659103352497923000,11.171923095703125,-243.05625915527344,1119.112548828125,65.25
1659103352507923000,11.1819228515625,-243.31875610351562,1119.4500732421875,65.28750610351562
1659103352517923000,11.191923095703125,-243.69375610351562,1119.60009765625,65.0625
1659103352527923000,11.2019228515625,-244.06875610351562,1118.9625244140625,65.73750305175781
1659103352537923000,11.211923095703124,-244.1437530517578,1118.85009765625,65.75625610351562
1659103352547923000,11.2219228515625,-244.10626220703125,1119.4500732421875,65.45625305175781
1659103352557923000,11.231923095703126,-244.36875915527344,1119.3563232421875,65.6812515258789
1659103352567923000,11.2419228515625,-244.48126220703125,1119.375,65.53125
1659103352577923000,11.251923095703125,-244.44375610351562,1119.112548828125,65.51250457763672
1659103352587923000,11.2619228515625,-244.57501220703125,1118.8875732421875,65.70000457763672
1659103352597923000,11.271923095703125,-244.53750610351562,1119.09375,65.90625
1659103352607923000,11.2819228515625,-244.0500030517578,1119.8250732421875,65.23125457763672
1659103352617923000,11.291923095703124,-243.84376525878906,1119.7125244140625,65.3062515258789
1659103352627923000,11.3019228515625,-243.97500610351562,1119.41259765625,65.28750610351562
1659103352637923000,11.311923095703126,-243.84376525878906,1119.5438232421875,65.04375457763672
1659103352647923000,11.3219228515625,-243.93751525878906,1119.60009765625,65.13750457763672
1659103352657923000,11.331923095703125,-243.5812530517578,1119.9188232421875,65.10000610351562
1659103352667923000,11.3419228515625,-243.35626220703125,1119.862548828125,64.81875610351562
1659103352677923000,11.351923095703125,-243.43125915527344,1119.375,64.9312515258789
1659103352687923000,11.3619228515625,-243.88125610351562,1119,64.7437515258789
1659103352697923000,11.371923095703124,-243.93751525878906,1119.13134765625,64.80000305175781
1659103352707923000,11.3819228515625,-243.75001525878906,1119.4500732421875,64.95000457763672
1659103352717923000,11.391923095703126,-243.9562530517578,1119.31884765625,64.9312515258789
1659103352727923000,11.4019228515625,-243.82501220703125,1119.13134765625,64.8375015258789
1659103352737923000,11.411923095703125,-244.06875610351562,1119.018798828125,64.875
1659103352747923000,11.4219228515625,-243.93751525878906,1119.0750732421875,64.80000305175781
1659103352757923000,11.431923095703125,-243.88125610351562,1119.375,64.59375
1659103352767923000,11.4419228515625,-243.6750030517578,1119.75,64.875
1659103352777923000,11.451923095703124,-243.91876220703125,1119.8062744140625,64.59375
1659103352787923000,11.4619228515625,-243.5812530517578,1119.50634765625,64.61250305175781
1659103352797923000,11.471923095703126,-243.50625610351562,1119.1875,64.9312515258789
1659103352807923000,11.4819228515625,-243.75001525878906,1119.4312744140625,65.0625
1659103352817923000,11.491923095703125,-243.6750030517578,1119.65625,65.23125457763672
1659103352827923000,11.5019228515625,-244.1437530517578,1119.50634765625,65.23125457763672
1659103352837923000,11.511923095703125,-243.97500610351562,1119.69384765625,65.08125305175781
1659103352847923000,11.5219228515625,-243.7687530517578,1119.9937744140625,65.10000610351562
1659103352857923000,11.531923095703124,-243.46876525878906,1119.7313232421875,65.34375
1659103352867923000,11.5419228515625,-243.91876220703125,1119.675048828125,65.8687515258789
1659103352877923000,11.551923095703126,-243.8625030517578,1119.768798828125,65.5875015258789
1659103352887923000,11.5619228515625,-243.60000610351562,1119.60009765625,65.38125610351562
1659103352897923000,11.571923095703125,-243.60000610351562,1119.41259765625,65.0625
1659103352907923000,11.5819228515625,-243.09376525878906,1119.5250244140625,65.25
1659103352917923000,11.591923095703125,-243.09376525878906,1119.3375244140625,65.34375
1659103352927923000,11.6019228515625,-243.31875610351562,1119.0562744140625,65.17500305175781
1659103352937923000,11.611923095703125,-243.71250915527344,1118.85009765625,65.19375610351562
1659103352947923000,11.6219228515625,-243.4875030517578,1119.50634765625,64.59375
1659103352957923000,11.631923095703126,-243.16876220703125,1119.9000244140625,64.59375
1659103352967923000,11.6419228515625,-243.37501525878906,1119.88134765625,64.66875457763672
1659103352977923000,11.651923095703125,-243.43125915527344,1119.6187744140625,64.7437515258789
1659103352987923000,11.6619228515625,-243.41250610351562,1119.675048828125,64.66875457763672
1659103352997923000,11.671923095703125,-243.61875915527344,1119.7125244140625,64.63125610351562
1659103353007923000,11.6819228515625,-243.50625610351562,1119.65625,64.78125
1659103353017923000,11.691923095703125,-243.61875915527344,1119.9188232421875,64.4625015258789
1659103353027923000,11.7019228515625,-243.73126220703125,1119.50634765625,64.5562515258789
1659103353037923000,11.711923095703124,-243.9562530517578,1119.375,64.6875
1659103353047923000,11.7219228515625,-243.5812530517578,1119.300048828125,64.95000457763672
1659103353057923000,11.731923095703126,-243.75001525878906,1119.862548828125,64.9312515258789
1659103353067923000,11.7419228515625,-243.7687530517578,1119.7125244140625,64.95000457763672
1659103353077923000,11.751923095703125,-243.52500915527344,1119.6375732421875,64.95000457763672
1659103353087923000,11.7619228515625,-243.4875030517578,1119.581298828125,65.10000610351562
1659103353097923000,11.771923095703125,-243.3000030517578,1119.3563232421875,65.32500457763672
1659103353107923000,11.7819228515625,-243.33750915527344,1119.112548828125,65.36250305175781
1659103353117923000,11.791923095703124,-243.2062530517578,1119.22509765625,65.19375610351562
1659103353127923000,11.8019228515625,-243.41250610351562,1119.393798828125,65.10000610351562
1659103353137923000,11.811923095703126,-243.33750915527344,1118.94384765625,65.15625
1659103353147923000,11.8219228515625,-243.43125915527344,1118.8875732421875,65.26875305175781
1659103353157923000,11.831923095703125,-243.73126220703125,1118.737548828125,65.19375610351562
1659103353167923000,11.8419228515625,-244.12501525878906,1118.28759765625,65.17500305175781
1659103353177923000,11.851923095703125,-244.03126525878906,1118.831298828125,65.3062515258789
1659103353187923000,11.8619228515625,-243.9562530517578,1118.9625244140625,65.04375457763672
1659103353197923000,11.871923095703124,-244.10626220703125,1119.09375,65.23125457763672
1659103353207923000,11.8819228515625,-244.20001220703125,1119.09375,65.23125457763672
1659103353217923000,11.891923095703126,-244.31251525878906,1119.2625732421875,65.1187515258789
1659103353227923000,11.9019228515625,-244.20001220703125,1119.487548828125,64.98750305175781
1659103353237923000,11.911923095703125,-243.93751525878906,1119.5625,65.26875305175781
1659103353247923000,11.9219228515625,-243.43125915527344,1119.8250732421875,65.04375457763672
1659103353257923000,11.931923095703125,-243.82501220703125,1119.5438232421875,64.875
1659103353267923000,11.9419228515625,-243.61875915527344,1119.9000244140625,65.15625
1659103353277923000,11.951923095703124,-243.28126525878906,1119.88134765625,65.04375457763672
1659103353287923000,11.9619228515625,-243.1125030517578,1119.84375,64.98750305175781
1659103353297923000,11.971923095703126,-242.9250030517578,1119.8250732421875,65.04375457763672
1659103353307923000,11.9819228515625,-242.8312530517578,1119.65625,65.17500305175781
1659103353317923000,11.991923095703125,-242.71876525878906,1119.5438232421875,65.15625
1659103353327923000,12.0019228515625,-243.00001525878906,1119.69384765625,65.0625
1659103353337923000,12.011923095703125,-242.6437530517578,1119.7125244140625,65.36250305175781
1659103353347923000,12.0219228515625,-243.0187530517578,1119.768798828125,65.17500305175781
1659103353357923000,12.031923095703124,-243.16876220703125,1119.65625,65.28750610351562
1659103353367923000,12.0419228515625,-243.33750915527344,1119.4500732421875,65.26875305175781
1659103353377923000,12.051923095703126,-243.26251220703125,1119.581298828125,65.3062515258789
1659103353387923000,12.0619228515625,-243.4875030517578,1119.69384765625,65.23125457763672
1659103353397923000,12.071923095703125,-243.52500915527344,1119.88134765625,65.23125457763672
1659103353407923000,12.0819228515625,-243.46876525878906,1119.4500732421875,65.25
1659103353417923000,12.091923095703125,-243.7687530517578,1119.50634765625,64.8375015258789
1659103353427923000,12.1019228515625,-243.31875610351562,1119.22509765625,64.8375015258789
1659103353437923000,12.111923095703125,-243.31875610351562,1119.206298828125,64.57500457763672
1659103353447923000,12.1219228515625,-243.3000030517578,1119.4312744140625,64.5
1659103353457923000,12.131923095703126,-243.37501525878906,1119.22509765625,64.42500305175781
1659103353467923000,12.1419228515625,-243.3000030517578,1119.206298828125,64.5
1659103353477923000,12.151923095703125,-243.82501220703125,1118.7750244140625,64.5562515258789
1659103353487923000,12.1619228515625,-243.73126220703125,1119.31884765625,64.66875457763672
1659103353497923000,12.171923095703125,-243.2062530517578,1119.28125,64.80000305175781
1659103353507923000,12.1819228515625,-243.50625610351562,1119.393798828125,64.8375015258789
1659103353517923000,12.191923095703125,-243.69375610351562,1119.2625732421875,64.95000457763672
1659103353527923000,12.2019228515625,-243.63751220703125,1119.393798828125,65.0625
1659103353537923000,12.211923095703124,-243.82501220703125,1119.46875,65.08125305175781
1659103353547923000,12.2219228515625,-243.78750610351562,1119.46875,64.98750305175781
1659103353557923000,12.231923095703126,-243.61875915527344,1119.9188232421875,65.08125305175781
1659103353567923000,12.2419228515625,-243.63751220703125,1119.7313232421875,65.23125457763672
1659103353577923000,12.251923095703125,-243.7687530517578,1120.0125732421875,65.41875457763672
1659103353587923000,12.2619228515625,-243.52500915527344,1119.9937744140625,65.38125610351562
1659103353597923000,12.271923095703125,-243.26251220703125,1119.97509765625,65.41875457763672
1659103353607923000,12.2819228515625,-243.60000610351562,1119.31884765625,65.26875305175781
1659103353617923000,12.291923095703124,-243.52500915527344,1118.8875732421875,65.4000015258789
1659103353627923000,12.3019228515625,-243.52500915527344,1118.8875732421875,65.32500457763672
1659103353637923000,12.311923095703126,-243.45001220703125,1118.6812744140625,65.0625
1659103353647923000,12.3219228515625,-243.3000030517578,1118.7000732421875,65.23125457763672
1659103353657923000,12.331923095703125,-243.26251220703125,1118.550048828125,65.00625610351562
1659103353667923000,12.3419228515625,-243.3000030517578,1118.362548828125,65.00625610351562
1659103353677923000,12.351923095703125,-243.52500915527344,1118.2125244140625,65.00625610351562
1659103353687923000,12.3619228515625,-243.1125030517578,1118.71875,65.0250015258789
1659103353697923000,12.371923095703124,-243.15000915527344,1118.8875732421875,64.98750305175781
1659103353707923000,12.3819228515625,-243.16876220703125,1119.09375,65.10000610351562
1659103353717923000,12.391923095703126,-243.24375915527344,1119.22509765625,65.13750457763672
1659103353727923000,12.4019228515625,-243.63751220703125,1119,65.36250305175781
1659103353737923000,12.411923095703125,-243.54376220703125,1119.0562744140625,65.4000015258789
1659103353747923000,12.4219228515625,-243.63751220703125,1119.375,65.4937515258789
1659103353757923000,12.431923095703125,-243.91876220703125,1119.300048828125,65.75625610351562
1659103353767923000,12.4419228515625,-243.93751525878906,1119.41259765625,65.90625
1659103353777923000,12.451923095703124,-243.80625915527344,1119.65625,65.85000610351562
1659103353787923000,12.4619228515625,-244.10626220703125,1119.5250244140625,65.88750457763672
1659103353797923000,12.471923095703126,-243.5812530517578,1119.487548828125,65.92500305175781
1659103353807923000,12.4819228515625,-243.31875610351562,1119.9188232421875,65.55000305175781
1659103353817923000,12.491923095703125,-243.50625610351562,1119.7313232421875,65.70000457763672
1659103353827923000,12.5019228515625,-243.56251525878906,1119.3375244140625,65.7750015258789
1659103353837923000,12.511923095703125,-243.37501525878906,1119.862548828125,65.6812515258789
1659103353847923000,12.5219228515625,-243.4875030517578,1119.75,65.73750305175781
1659103353857923000,12.531923095703124,-243.60000610351562,1119.581298828125,65.7750015258789
1659103353867923000,12.5419228515625,-243.37501525878906,1119.5250244140625,65.98125457763672
1659103353877923000,12.551923095703126,-243.54376220703125,1119.60009765625,66.01875305175781
1659103353887923000,12.5619228515625,-243.54376220703125,1119.1500244140625,65.8125
1659103353897923000,12.571923095703125,-243.90000915527344,1119,65.85000610351562
1659103353907923000,12.5819228515625,-243.82501220703125,1119.1500244140625,65.79375457763672
1659103353917923000,12.591923095703125,-243.54376220703125,1118.90625,65.71875
1659103353927923000,12.6019228515625,-243.37501525878906,1118.9625244140625,65.38125610351562
1659103353937923000,12.611923095703125,-243.3000030517578,1119.28125,65.41875457763672
1659103353947923000,12.6219228515625,-243.35626220703125,1119.1500244140625,65.38125610351562
1659103353957923000,12.631923095703126,-243.3937530517578,1119.1500244140625,65.38125610351562
1659103353967923000,12.6419228515625,-243.18751525878906,1119.5625,65.47500610351562
1659103353977923000,12.651923095703125,-243.31875610351562,1119.31884765625,65.2125015258789
1659103353987923000,12.6619228515625,-243.37501525878906,1119.3375244140625,65.17500305175781
1659103353997923000,12.671923095703125,-243.37501525878906,1119.46875,64.8375015258789
1659103354007923000,12.6819228515625,-243.43125915527344,1119.393798828125,65.10000610351562
1659103354017923000,12.691923095703125,-243.3937530517578,1119.3375244140625,65.0250015258789
1659103354027923000,12.7019228515625,-243.22500610351562,1119.393798828125,64.70625305175781
1659103354037923000,12.711923095703124,-243.73126220703125,1119.03759765625,64.42500305175781
1659103354047923000,12.7219228515625,-244.01251220703125,1118.9813232421875,64.4625015258789
1659103354057923000,12.731923095703126,-243.4875030517578,1119.5625,64.70625305175781
1659103354067923000,12.7419228515625,-243.2062530517578,1119.60009765625,64.6500015258789
1659103354077923000,12.751923095703125,-243.31875610351562,1119.768798828125,65.15625
1659103354087923000,12.7619228515625,-243.31875610351562,1119.7313232421875,65.08125305175781
1659103354097923000,12.771923095703125,-243.2062530517578,1119.46875,65.04375457763672
1659103354107923000,12.7819228515625,-243.60000610351562,1119.0562744140625,65.38125610351562
1659103354117923000,12.791923095703124,-243.26251220703125,1119.487548828125,65.6812515258789
1659103354127923000,12.8019228515625,-243.16876220703125,1119.3563232421875,65.60625457763672
1659103354137923000,12.811923095703126,-243.1125030517578,1119.393798828125,65.45625305175781
1659103354147923000,12.8219228515625,-243.3000030517578,1119.4312744140625,65.53125
1659103354157923000,12.831923095703125,-243.13125610351562,1119.1688232421875,65.2125015258789
1659103354167923000,12.8419228515625,-243.09376525878906,1119.28125,65.28750610351562
1659103354177923000,12.851923095703125,-243.37501525878906,1119.09375,65.13750457763672
1659103354187923000,12.8619228515625,-243.33750915527344,1119.4312744140625,64.63125610351562
1659103354197923000,12.871923095703124,-243.56251525878906,1119.375,64.51875305175781
1659103354207923000,12.8819228515625,-243.78750610351562,1119.78759765625,64.70625305175781
1659103354217923000,12.891923095703126,-243.8625030517578,1119.8250732421875,64.72500610351562
1659103354227923000,12.9019228515625,-244.12501525878906,1119.88134765625,64.6875
1659103354237923000,12.911923095703125,-244.27500915527344,1119.69384765625,64.6875
1659103354247923000,12.9219228515625,-244.74375915527344,1119.2625732421875,64.4625015258789
1659103354257923000,12.931923095703125,-244.53750610351562,1119.768798828125,64.89375305175781
1659103354267923000,12.9419228515625,-244.18125915527344,1119.8250732421875,65.10000610351562
1659103354277923000,12.951923095703124,-243.99375915527344,1119.8250732421875,65.32500457763672
1659103354287923000,12.9619228515625,-243.7687530517578,1119.581298828125,65.19375610351562
1659103354297923000,12.971923095703126,-243.60000610351562,1119.2437744140625,65.08125305175781
1659103354307923000,12.9819228515625,-243.35626220703125,1119.1875,65.04375457763672
1659103354317923000,12.991923095703125,-243.75001525878906,1119.112548828125,64.81875610351562
1659103354327923000,13.0019228515625,-243.54376220703125,1119.3375244140625,64.8375015258789
1659103354337923000,13.011923095703125,-243.65626525878906,1119.112548828125,64.53750610351562
1659103354347923000,13.0219228515625,-243.8625030517578,1119.03759765625,64.3687515258789
1659103354357923000,13.031923095703124,-243.8625030517578,1119.0750732421875,64.1812515258789
1659103354367923000,13.0419228515625,-243.9562530517578,1119.1688232421875,64.3125
1659103354377923000,13.051923095703126,-244.27500915527344,1119.0750732421875,64.2750015258789
1659103354387923000,13.0619228515625,-244.76251220703125,1118.4375,64.1812515258789
1659103354397923000,13.071923095703125,-244.59376525878906,1118.53125,64.51875305175781
1659103354407923000,13.0819228515625,-244.48126220703125,1118.7000732421875,64.66875457763672
1659103354417923000,13.091923095703125,-244.35000610351562,1118.7750244140625,64.63125610351562
1659103354427923000,13.1019228515625,-244.2375030517578,1118.8687744140625,64.81875610351562
1659103354437923000,13.111923095703125,-244.2375030517578,1118.66259765625,64.76250457763672
1659103354447923000,13.1219228515625,-244.10626220703125,1118.550048828125,64.61250305175781
1659103354457923000,13.131923095703126,-244.12501525878906,1118.4000244140625,64.51875305175781
1659103354467923000,13.1419228515625,-243.84376525878906,1118.6812744140625,64.78125
1659103354477923000,13.151923095703125,-243.5812530517578,1118.8687744140625,64.78125
1659103354487923000,13.1619228515625,-243.43125915527344,1118.85009765625,64.85625457763672
1659103354497923000,13.171923095703125,-243.78750610351562,1119,65.0250015258789
1659103354507923000,13.1819228515625,-243.82501220703125,1119.13134765625,64.98750305175781
1659103354517923000,13.191923095703125,-243.71250915527344,1119.5438232421875,65.04375457763672
1659103354527923000,13.2019228515625,-244.18125915527344,1119.3563232421875,65.17500305175781
1659103354537923000,13.211923095703124,-243.93751525878906,1119.69384765625,65.34375
1659103354547923000,13.2219228515625,-243.93751525878906,1120.0125732421875,64.96875
1659103354557923000,13.231923095703126,-243.84376525878906,1120.2000732421875,65.25
1659103354567923000,13.2419228515625,-243.80625915527344,1120.2750244140625,65.26875305175781
1659103354577923000,13.251923095703125,-243.4875030517578,1119.862548828125,65.15625
1659103354587923000,13.2619228515625,-243.2062530517578,1119.8062744140625,65.32500457763672
1659103354597923000,13.271923095703125,-243.4875030517578,1119.018798828125,65.26875305175781
1659103354607923000,13.2819228515625,-242.94375610351562,1119.0562744140625,65.25
1659103354617923000,13.291923095703124,-242.8312530517578,1119.2625732421875,65.25
1659103354627923000,13.3019228515625,-242.47500610351562,1119.112548828125,65.38125610351562
1659103354637923000,13.311923095703126,-242.60626220703125,1119.1500244140625,65.1187515258789
1659103354647923000,13.3219228515625,-242.4562530517578,1119.1500244140625,64.9312515258789
1659103354657923000,13.331923095703125,-242.43751525878906,1119.4500732421875,64.81875610351562
1659103354667923000,13.3419228515625,-242.5500030517578,1119.5250244140625,64.78125
1659103354677923000,13.351923095703125,-242.19375610351562,1119.75,64.8375015258789
1659103354687923000,13.3619228515625,-242.62501525878906,1119.65625,64.5562515258789
1659103354697923000,13.371923095703124,-242.6437530517578,1119.5250244140625,64.76250457763672
1659103354707923000,13.3819228515625,-242.75625610351562,1119.78759765625,64.78125
1659103354717923000,13.391923095703126,-242.60626220703125,1119.8250732421875,64.81875610351562
1659103354727923000,13.4019228515625,-242.62501525878906,1119.75,64.8375015258789
1659103354737923000,13.411923095703125,-242.71876525878906,1119.78759765625,64.85625457763672
1659103354747923000,13.4219228515625,-242.6437530517578,1119.7125244140625,64.66875457763672
1659103354757923000,13.431923095703125,-242.98126220703125,1119.9375,64.5562515258789
1659103354767923000,13.4419228515625,-242.9250030517578,1119.956298828125,64.76250457763672
1659103354777923000,13.451923095703124,-243.26251220703125,1120.16259765625,64.875
1659103354787923000,13.4619228515625,-243.60000610351562,1120.237548828125,65.17500305175781
1659103354797923000,13.471923095703126,-243.73126220703125,1120.06884765625,65.0625
1659103354807923000,13.4819228515625,-243.8625030517578,1119.9937744140625,65.10000610351562
1659103354817923000,13.491923095703125,-243.75001525878906,1120.03125,65.3062515258789
1659103354827923000,13.5019228515625,-243.80625915527344,1119.9188232421875,65.26875305175781
1659103354837923000,13.511923095703125,-243.80625915527344,1119.46875,65.8125
1659103354847923000,13.5219228515625,-243.7687530517578,1119.675048828125,65.8125
1659103354857923000,13.531923095703124,-243.60000610351562,1119.46875,65.53125
1659103354867923000,13.5419228515625,-243.05625915527344,1119.3375244140625,65.36250305175781
1659103354877923000,13.551923095703126,-243.18751525878906,1119.31884765625,65.19375610351562
1659103354887923000,13.5619228515625,-243.37501525878906,1119.2625732421875,65.08125305175781
