time,seconds_elapsed,z,y,x
1659103341414468900,0.08846875,9.78664493560791,0.23330020904541016,-0.059820566326379776
1659103341424139800,0.098139892578125,9.78544807434082,0.23449662327766418,-0.058624155819416046
1659103341433810700,0.107810791015625,9.791430473327637,0.2356930375099182,-0.04426721855998039
1659103341443481600,0.117481689453125,9.789037704467773,0.2356930375099182,-0.037088751792907715
1659103341453152500,0.127152587890625,9.791430473327637,0.22013968229293823,-0.059820566326379776
1659103341462823400,0.136823486328125,9.797411918640137,0.22372891008853912,-0.039481572806835175
1659103341472494300,0.146494384765625,9.791430473327637,0.22851456701755524,-0.05383851006627083
1659103341482165500,0.15616552734375,9.78544807434082,0.2189432680606842,-0.05503492057323456
1659103341491836400,0.16583642578125,9.7938232421875,0.22492532432079315,-0.05623133108019829
1659103341501507300,0.17550732421875,9.78664493560791,0.2225325107574463,-0.03469592705368996
1659103341511178200,0.18517822265625,9.783055305480957,0.21774685382843018,-0.04426721855998039
1659103341520849200,0.19484912109375,9.78664493560791,0.24885354936122894,-0.05623133108019829
1659103341530520000,0.20452001953125,9.78544807434082,0.24167509377002716,-0.04785645380616188
1659103341540191000,0.21419091796875,9.78664493560791,0.24406790733337402,-0.05144568532705307
1659103341549862000,0.22386181640625,9.789037704467773,0.23330020904541016,-0.061016976833343506
1659103341559532800,0.23353271484375,9.791430473327637,0.2309073805809021,-0.04905286431312561
1659103341569204000,0.243203857421875,9.798608779907227,0.23449662327766418,-0.05503492057323456
1659103341578875000,0.252875,9.795019149780273,0.22971096634864807,-0.04785645380616188
1659103341588545800,0.2625458984375,9.78664493560791,0.22851456701755524,-0.05623133108019829
1659103341598216700,0.272216796875,9.80817985534668,0.21655045449733734,-0.05144568532705307
1659103341607887600,0.2818876953125,9.80817985534668,0.22013968229293823,-0.05623133108019829
1659103341617558500,0.29155859375,9.796216011047363,0.2273181527853012,-0.058624155819416046
1659103341627229700,0.301229736328125,9.797411918640137,0.23688943684101105,-0.05742774158716202
1659103341636900600,0.310900634765625,9.80100154876709,0.2309073805809021,-0.04307080805301666
1659103341646571500,0.320571533203125,9.795019149780273,0.24526432156562805,-0.0526420995593071
1659103341656242400,0.330242431640625,9.79262638092041,0.23449662327766418,-0.05503492057323456
1659103341665913300,0.339913330078125,9.7938232421875,0.2225325107574463,-0.035892341285943985
1659103341675584300,0.349584228515625,9.797411918640137,0.2392822653055191,-0.037088751792907715
1659103341685255400,0.35925537109375,9.78664493560791,0.23210379481315613,-0.05144568532705307
1659103341694926300,0.36892626953125,9.790233612060547,0.24526432156562805,-0.04785645380616188
1659103341704597200,0.37859716796875,9.795019149780273,0.24167509377002716,-0.04905286431312561
1659103341714268200,0.38826806640625,9.796216011047363,0.23688943684101105,-0.04905286431312561
1659103341723939000,0.39793896484375,9.795019149780273,0.22971096634864807,-0.05503492057323456
1659103341733610000,0.40760986328125,9.7938232421875,0.22851456701755524,-0.059820566326379776
1659103341743281000,0.417281005859375,9.791430473327637,0.22013968229293823,-0.061016976833343506
1659103341752952000,0.4269521484375,9.784252166748047,0.22492532432079315,-0.04666004329919815
1659103341762623000,0.436623046875,9.7938232421875,0.23688943684101105,-0.039481572806835175
1659103341772294000,0.4462939453125,9.80219841003418,0.22372891008853912,-0.05144568532705307
1659103341781964800,0.45596484375,9.790233612060547,0.2105683982372284,-0.0526420995593071
1659103341791635700,0.4656357421875,9.78544807434082,0.22851456701755524,-0.04785645380616188
1659103341801306600,0.475306640625,9.791430473327637,0.24047867953777313,-0.04905286431312561
1659103341810977500,0.4849775390625,9.7998046875,0.24646073579788208,-0.037088751792907715
1659103341820648400,0.4946484375,9.804591178894043,0.23688943684101105,-0.04187439754605293
1659103341830319400,0.5043193359375,9.7938232421875,0.24287149310112,-0.04905286431312561
1659103341839990500,0.513990478515625,9.796216011047363,0.2476571500301361,-0.040677983313798904
1659103341849661400,0.523661376953125,9.795019149780273,0.2356930375099182,-0.05024927482008934
1659103341859332400,0.533332275390625,9.796216011047363,0.24047867953777313,-0.04546362906694412
1659103341869003300,0.543003173828125,9.7998046875,0.24406790733337402,-0.04666004329919815
1659103341878674200,0.552674072265625,9.79262638092041,0.23330020904541016,-0.05623133108019829
1659103341888345000,0.562344970703125,9.803394317626953,0.22492532432079315,-0.0526420995593071
1659103341898016300,0.572016357421875,9.796216011047363,0.22133609652519226,-0.05623133108019829
1659103341907687200,0.581687255859375,9.791430473327637,0.22612173855304718,-0.05383851006627083
1659103341917358000,0.591358154296875,9.7938232421875,0.23210379481315613,-0.05383851006627083
1659103341927029000,0.601029052734375,9.7998046875,0.2392822653055191,-0.05623133108019829
1659103341936700000,0.610699951171875,9.79262638092041,0.2273181527853012,-0.04785645380616188
1659103341946371000,0.62037109375,9.796216011047363,0.23449662327766418,-0.04546362906694412
1659103341956042000,0.6300419921875,9.79262638092041,0.24287149310112,-0.05503492057323456
1659103341965713000,0.639712890625,9.795019149780273,0.2476571500301361,-0.05383851006627083
1659103341975383800,0.6493837890625,9.790233612060547,0.2392822653055191,-0.04785645380616188
1659103341985054700,0.6590546875,9.784252166748047,0.23688943684101105,-0.04187439754605293
1659103341994725600,0.6687255859375,9.798608779907227,0.2273181527853012,-0.04785645380616188
1659103342004396500,0.678396484375,9.79262638092041,0.24047867953777313,-0.04187439754605293
1659103342014067500,0.6880673828125,9.796216011047363,0.23688943684101105,-0.05024927482008934
1659103342023738600,0.697738525390625,9.80219841003418,0.21655045449733734,-0.05742774158716202
1659103342033409500,0.707409423828125,9.77826976776123,0.22013968229293823,-0.062213387340307236
1659103342043080400,0.71708056640625,9.798608779907227,0.23210379481315613,-0.04666004329919815
1659103342052751400,0.72675146484375,9.80100154876709,0.2225325107574463,-0.05383851006627083
1659103342062422300,0.73642236328125,9.790233612060547,0.23688943684101105,-0.0526420995593071
1659103342072093200,0.74609326171875,9.79262638092041,0.22492532432079315,-0.05144568532705307
1659103342081764000,0.75576416015625,9.787840843200684,0.23688943684101105,-0.038285162299871445
1659103342091435000,0.76543505859375,9.80100154876709,0.22971096634864807,-0.0526420995593071
1659103342101106200,0.775106201171875,9.795019149780273,0.22372891008853912,-0.05503492057323456
1659103342110777000,0.784777099609375,9.803394317626953,0.23688943684101105,-0.04785645380616188
1659103342120448000,0.794447998046875,9.791430473327637,0.24047867953777313,-0.03469592705368996
1659103342130119000,0.804118896484375,9.7998046875,0.22851456701755524,-0.058624155819416046
1659103342139789800,0.813789794921875,9.80219841003418,0.22612173855304718,-0.05623133108019829
1659103342149460700,0.823460693359375,9.798608779907227,0.2273181527853012,-0.059820566326379776
1659103342159132000,0.8331318359375,9.79262638092041,0.23688943684101105,-0.058624155819416046
1659103342168802800,0.842802734375,9.7998046875,0.2273181527853012,-0.06699903309345245
1659103342178473700,0.8524736328125,9.797411918640137,0.2309073805809021,-0.061016976833343506
1659103342188144600,0.86214453125,9.797411918640137,0.2309073805809021,-0.059820566326379776
1659103342197815600,0.871815673828125,9.79262638092041,0.2189432680606842,-0.05144568532705307
1659103342207486500,0.881486572265625,9.7938232421875,0.2309073805809021,-0.05742774158716202
1659103342217157600,0.89115771484375,9.797411918640137,0.22971096634864807,-0.04426721855998039
1659103342226828500,0.90082861328125,9.798608779907227,0.2309073805809021,-0.05623133108019829
1659103342236499500,0.91049951171875,9.798608779907227,0.23210379481315613,-0.05383851006627083
1659103342246170400,0.92017041015625,9.798608779907227,0.23210379481315613,-0.04785645380616188
1659103342255841300,0.92984130859375,9.796216011047363,0.22492532432079315,-0.05742774158716202
1659103342265512200,0.93951220703125,9.791430473327637,0.2309073805809021,-0.061016976833343506
1659103342275183400,0.949183349609375,9.795019149780273,0.22851456701755524,-0.04785645380616188
1659103342284854300,0.958854248046875,9.80219841003418,0.23808585107326508,-0.05144568532705307
1659103342294525200,0.968525146484375,9.796216011047363,0.2309073805809021,-0.064606212079525
1659103342304196000,0.978196044921875,9.80100154876709,0.23688943684101105,-0.059820566326379776
1659103342313867000,0.987866943359375,9.803394317626953,0.2356930375099182,-0.05024927482008934
1659103342323538000,0.997537841796875,9.797411918640137,0.2273181527853012,-0.05383851006627083
1659103342333208800,1.007208740234375,9.798608779907227,0.22492532432079315,-0.04187439754605293
1659103342342879700,1.016879638671875,9.80219841003418,0.22612173855304718,-0.05742774158716202
1659103342352551000,1.026551025390625,9.796216011047363,0.2189432680606842,-0.031106693670153618
1659103342362221800,1.036221923828125,9.805787086486816,0.23210379481315613,-0.03349951654672623
1659103342371892700,1.045892822265625,9.795019149780273,0.22013968229293823,-0.059820566326379776
1659103342381563600,1.055563720703125,9.791430473327637,0.22013968229293823,-0.05144568532705307
1659103342391234600,1.065234619140625,9.797411918640137,0.2273181527853012,-0.04187439754605293
1659103342400905500,1.074905517578125,9.790233612060547,0.22851456701755524,-0.05503492057323456
1659103342410576400,1.084576416015625,9.790233612060547,0.22851456701755524,-0.04666004329919815
1659103342420247300,1.094247314453125,9.806983947753906,0.22971096634864807,-0.06340979784727097
1659103342429918500,1.10391845703125,9.810572624206543,0.22851456701755524,-0.04426721855998039
1659103342439589400,1.11358935546875,9.7938232421875,0.23210379481315613,-0.04666004329919815
1659103342449260300,1.12326025390625,9.787840843200684,0.22013968229293823,-0.04905286431312561
1659103342458931200,1.13293115234375,9.80100154876709,0.23449662327766418,-0.04905286431312561
1659103342468602000,1.14260205078125,9.804591178894043,0.23688943684101105,-0.05623133108019829
1659103342478273000,1.15227294921875,9.797411918640137,0.2189432680606842,-0.04546362906694412
1659103342487944200,1.161944091796875,9.796216011047363,0.22851456701755524,-0.04785645380616188
1659103342497615000,1.171614990234375,9.798608779907227,0.22372891008853912,-0.05383851006627083
1659103342507286000,1.1812861328125,9.80100154876709,0.21774685382843018,-0.05024927482008934
1659103342516957000,1.19095703125,9.798608779907227,0.22971096634864807,-0.0526420995593071
1659103342526627800,1.2006279296875,9.78664493560791,0.22612173855304718,-0.04546362906694412
1659103342536298800,1.210298828125,9.796216011047363,0.23688943684101105,-0.038285162299871445
1659103342545970000,1.219969970703125,9.7998046875,0.22851456701755524,-0.05623133108019829
1659103342555640800,1.229640869140625,9.79262638092041,0.23449662327766418,-0.04546362906694412
1659103342565311700,1.239311767578125,9.790233612060547,0.22372891008853912,-0.04426721855998039
1659103342574982700,1.248982666015625,9.797411918640137,0.23688943684101105,-0.04905286431312561
1659103342584653600,1.258653564453125,9.805787086486816,0.23449662327766418,-0.05024927482008934
1659103342594324500,1.268324462890625,9.7998046875,0.2392822653055191,-0.059820566326379776
1659103342603995600,1.27799560546875,9.804591178894043,0.22612173855304718,-0.05623133108019829
1659103342613666600,1.28766650390625,9.804591178894043,0.22372891008853912,-0.05383851006627083
1659103342623337500,1.29733740234375,9.798608779907227,0.22612173855304718,-0.05024927482008934
1659103342633008400,1.30700830078125,9.796216011047363,0.2189432680606842,-0.059820566326379776
1659103342642679300,1.31667919921875,9.803394317626953,0.2225325107574463,-0.062213387340307236
1659103342652350200,1.32635009765625,9.790233612060547,0.22372891008853912,-0.058624155819416046
1659103342662021400,1.336021484375,9.80219841003418,0.2189432680606842,-0.04307080805301666
1659103342671692300,1.3456923828125,9.798608779907227,0.22851456701755524,-0.05623133108019829
1659103342681363200,1.35536328125,9.787840843200684,0.23808585107326508,-0.05623133108019829
1659103342691034000,1.3650341796875,9.798608779907227,0.23210379481315613,-0.04546362906694412
1659103342700705000,1.374705078125,9.811769485473633,0.2356930375099182,-0.05024927482008934
1659103342710376000,1.3843759765625,9.804591178894043,0.23210379481315613,-0.04187439754605293
1659103342720047000,1.394047119140625,9.803394317626953,0.21176479756832123,-0.062213387340307236
1659103342729718000,1.403718017578125,9.796216011047363,0.22612173855304718,-0.05144568532705307
1659103342739389000,1.413388916015625,9.798608779907227,0.23449662327766418,-0.05503492057323456
1659103342749059800,1.423059814453125,9.80100154876709,0.23210379481315613,-0.05144568532705307
1659103342758730800,1.432730712890625,9.80100154876709,0.24047867953777313,-0.04666004329919815
1659103342768401700,1.442401611328125,9.796216011047363,0.23330020904541016,-0.05742774158716202
1659103342778072600,1.452072509765625,9.805787086486816,0.21655045449733734,-0.061016976833343506
1659103342787743700,1.46174365234375,9.796216011047363,0.21774685382843018,-0.05503492057323456
1659103342797414700,1.47141455078125,9.80100154876709,0.23808585107326508,-0.05383851006627083
1659103342807085600,1.48108544921875,9.80817985534668,0.2392822653055191,-0.04307080805301666
1659103342816756500,1.490756591796875,9.79262638092041,0.23808585107326508,-0.03469592705368996
1659103342826427400,1.500427490234375,9.803394317626953,0.23449662327766418,-0.04426721855998039
1659103342836098300,1.510098388671875,9.80219841003418,0.23210379481315613,-0.04905286431312561
1659103342845769500,1.51976953125,9.796216011047363,0.2356930375099182,-0.04905286431312561
1659103342855440400,1.5294404296875,9.795019149780273,0.22971096634864807,-0.04666004329919815
1659103342865111300,1.539111328125,9.7938232421875,0.23210379481315613,-0.04187439754605293
1659103342874782200,1.5487822265625,9.7998046875,0.22851456701755524,-0.05024927482008934
1659103342884453000,1.558453125,9.795019149780273,0.24167509377002716,-0.05623133108019829
1659103342894124000,1.5681240234375,9.803394317626953,0.23449662327766418,-0.05503492057323456
1659103342903795000,1.577794921875,9.812965393066406,0.2273181527853012,-0.0526420995593071
1659103342913466000,1.587466064453125,9.804591178894043,0.22851456701755524,-0.05623133108019829
1659103342923137000,1.597136962890625,9.79262638092041,0.2356930375099182,-0.07058826833963394
1659103342932808000,1.606807861328125,9.803394317626953,0.23210379481315613,-0.05024927482008934
1659103342942478800,1.616478759765625,9.798608779907227,0.22372891008853912,-0.05503492057323456
1659103342952149800,1.626149658203125,9.80100154876709,0.22612173855304718,-0.05383851006627083
1659103342961820700,1.635820556640625,9.796216011047363,0.23330020904541016,-0.04426721855998039
1659103342971491800,1.645491943359375,9.80219841003418,0.23210379481315613,-0.04785645380616188
1659103342981162800,1.655162841796875,9.80219841003418,0.2309073805809021,-0.05623133108019829
1659103342990833700,1.664833740234375,9.80817985534668,0.23449662327766418,-0.04187439754605293
1659103343000504600,1.674504638671875,9.80219841003418,0.24885354936122894,-0.05024927482008934
1659103343010175500,1.684175537109375,9.80937671661377,0.2356930375099182,-0.04307080805301666
1659103343019846400,1.693846435546875,9.791430473327637,0.2356930375099182,-0.04426721855998039
1659103343029517600,1.703517578125,9.804591178894043,0.22492532432079315,-0.04785645380616188
1659103343039188500,1.7131884765625,9.804591178894043,0.2309073805809021,-0.05623133108019829
1659103343048859400,1.722859375,9.796216011047363,0.24047867953777313,-0.04426721855998039
1659103343058530300,1.7325302734375,9.810572624206543,0.22372891008853912,-0.04426721855998039
1659103343068201200,1.742201171875,9.805787086486816,0.2309073805809021,-0.05024927482008934
1659103343077872000,1.7518720703125,9.810572624206543,0.23210379481315613,-0.05503492057323456
1659103343087543300,1.761543212890625,9.804591178894043,0.2273181527853012,-0.04546362906694412
1659103343097214200,1.771214111328125,9.803394317626953,0.2153540402650833,-0.05144568532705307
1659103343106885000,1.780885009765625,9.789037704467773,0.23210379481315613,-0.05623133108019829
1659103343116556000,1.79055615234375,9.791430473327637,0.2309073805809021,-0.05383851006627083
1659103343126227000,1.80022705078125,9.804591178894043,0.22492532432079315,-0.05623133108019829
1659103343135897900,1.80989794921875,9.80937671661377,0.22851456701755524,-0.05623133108019829
1659103343145569000,1.819569091796875,9.7998046875,0.23330020904541016,-0.05024927482008934
1659103343155240000,1.829239990234375,9.806983947753906,0.22492532432079315,-0.05144568532705307
1659103343164910800,1.838910888671875,9.796216011047363,0.22971096634864807,-0.061016976833343506
1659103343174581800,1.848581787109375,9.798608779907227,0.23210379481315613,-0.04307080805301666
1659103343184252700,1.858252685546875,9.7938232421875,0.23330020904541016,-0.04905286431312561
1659103343193923800,1.867923828125,9.798608779907227,0.2356930375099182,-0.03469592705368996
1659103343203594800,1.8775947265625,9.7998046875,0.23808585107326508,-0.05024927482008934
1659103343213265700,1.887265625,9.798608779907227,0.23808585107326508,-0.05742774158716202
1659103343222936600,1.8969365234375,9.803394317626953,0.22851456701755524,-0.04426721855998039
1659103343232607500,1.906607421875,9.811769485473633,0.25004997849464417,-0.040677983313798904
1659103343242278400,1.9162783203125,9.803394317626953,0.22133609652519226,-0.062213387340307236
1659103343251949600,1.925949462890625,9.797411918640137,0.2356930375099182,-0.05383851006627083
1659103343261620500,1.935620361328125,9.798608779907227,0.24167509377002716,-0.04187439754605293
1659103343271291400,1.94529150390625,9.803394317626953,0.23210379481315613,-0.0526420995593071
1659103343280962300,1.95496240234375,9.805787086486816,0.23330020904541016,-0.05623133108019829
1659103343290633200,1.96463330078125,9.80100154876709,0.2392822653055191,-0.04187439754605293
1659103343300304100,1.97430419921875,9.797411918640137,0.22372891008853912,-0.05623133108019829
1659103343309975300,1.983975341796875,9.80219841003418,0.2356930375099182,-0.0526420995593071
1659103343319646200,1.993646240234375,9.806983947753906,0.22612173855304718,-0.059820566326379776
1659103343329317000,2.003317138671875,9.80219841003418,0.2309073805809021,-0.04187439754605293
1659103343338988000,2.012988037109375,9.7998046875,0.2273181527853012,-0.04905286431312561
1659103343348659000,2.022658935546875,9.80100154876709,0.24167509377002716,-0.05623133108019829
1659103343358330000,2.032330078125,9.80817985534668,0.23688943684101105,-0.04785645380616188
1659103343368001000,2.0420009765625,9.810572624206543,0.2309073805809021,-0.05742774158716202
1659103343377672000,2.051671875,9.806983947753906,0.22971096634864807,-0.05024927482008934
1659103343387342800,2.0613427734375,9.806983947753906,0.2273181527853012,-0.05144568532705307
1659103343397013800,2.071013671875,9.804591178894043,0.2356930375099182,-0.04785645380616188
1659103343406684700,2.0806845703125,9.80100154876709,0.23210379481315613,-0.04785645380616188
1659103343416355800,2.09035595703125,9.806983947753906,0.2273181527853012,-0.05383851006627083
1659103343426026800,2.10002685546875,9.7998046875,0.23688943684101105,-0.0526420995593071
1659103343435697700,2.10969775390625,9.810572624206543,0.24646073579788208,-0.04426721855998039
1659103343445368600,2.11936865234375,9.80817985534668,0.2273181527853012,-0.04187439754605293
1659103343455039500,2.12903955078125,9.803394317626953,0.24526432156562805,-0.05144568532705307
1659103343464710700,2.138710693359375,9.804591178894043,0.2392822653055191,-0.05742774158716202
1659103343474381600,2.148381591796875,9.810572624206543,0.2356930375099182,-0.04187439754605293
1659103343484052500,2.158052490234375,9.80100154876709,0.23210379481315613,-0.04905286431312561
1659103343493723400,2.167723388671875,9.810572624206543,0.2309073805809021,-0.06699903309345245
1659103343503394300,2.177394287109375,9.796216011047363,0.22612173855304718,-0.05024927482008934
1659103343513065200,2.187065185546875,9.804591178894043,0.23688943684101105,-0.03349951654672623
1659103343522736400,2.196736328125,9.80219841003418,0.23330020904541016,-0.04426721855998039
1659103343532407300,2.2064072265625,9.80817985534668,0.22971096634864807,-0.03469592705368996
1659103343542078200,2.216078125,9.80219841003418,0.22851456701755524,-0.06580262631177902
1659103343551749000,2.2257490234375,9.81535816192627,0.23330020904541016,-0.061016976833343506
1659103343561420000,2.235419921875,9.804591178894043,0.22612173855304718,-0.06340979784727097
1659103343571091000,2.245091064453125,9.814162254333496,0.24047867953777313,-0.05623133108019829
1659103343580762000,2.25476220703125,9.80817985534668,0.22851456701755524,-0.05024927482008934
1659103343590433000,2.26443310546875,9.80100154876709,0.22013968229293823,-0.05503492057323456
1659103343600104000,2.27410400390625,9.7998046875,0.2356930375099182,-0.05503492057323456
1659103343609774800,2.28377490234375,9.7998046875,0.22492532432079315,-0.035892341285943985
1659103343619445800,2.29344580078125,9.811769485473633,0.2392822653055191,-0.03469592705368996
1659103343629117000,2.303116943359375,9.80937671661377,0.2356930375099182,-0.05144568532705307
1659103343638787800,2.312787841796875,9.805787086486816,0.22492532432079315,-0.04666004329919815
1659103343648458800,2.322458740234375,9.795019149780273,0.22013968229293823,-0.04546362906694412
1659103343658129700,2.332129638671875,9.803394317626953,0.2225325107574463,-0.04666004329919815
1659103343667800600,2.341800537109375,9.798608779907227,0.2273181527853012,-0.04785645380616188
1659103343677471700,2.3514716796875,9.817750930786133,0.2189432680606842,-0.04666004329919815
1659103343687142700,2.361142578125,9.841679573059082,0.2273181527853012,-0.0526420995593071
1659103343696813600,2.3708134765625,9.824930191040039,0.2189432680606842,-0.05503492057323456
1659103343706484500,2.380484375,9.779465675354004,0.22372891008853912,-0.064606212079525
1659103343716155600,2.39015576171875,9.775876998901367,0.2356930375099182,-0.058624155819416046
1659103343725826600,2.39982666015625,9.80219841003418,0.23330020904541016,-0.05742774158716202
1659103343735497500,2.40949755859375,9.828518867492676,0.23449662327766418,-0.04666004329919815
1659103343745168400,2.41916845703125,9.80937671661377,0.23808585107326508,-0.04905286431312561
1659103343754839300,2.42883935546875,9.805787086486816,0.22971096634864807,-0.064606212079525
1659103343764510200,2.43851025390625,9.810572624206543,0.22612173855304718,-0.04905286431312561
1659103343774181400,2.448181396484375,9.803394317626953,0.21415762603282928,-0.05742774158716202
1659103343783852300,2.457852294921875,9.806983947753906,0.2189432680606842,-0.04666004329919815
1659103343793523200,2.467523193359375,9.795019149780273,0.2225325107574463,-0.06580262631177902
1659103343803194000,2.477194091796875,9.803394317626953,0.21176479756832123,-0.04546362906694412
1659103343812865000,2.486864990234375,9.81655502319336,0.2273181527853012,-0.05024927482008934
1659103343822536000,2.496535888671875,9.810572624206543,0.2105683982372284,-0.06340979784727097
1659103343832207000,2.50620703125,9.7998046875,0.22372891008853912,-0.05024927482008934
1659103343841878000,2.5158779296875,9.80219841003418,0.2273181527853012,-0.06340979784727097
1659103343851549000,2.525548828125,9.80937671661377,0.23808585107326508,-0.0526420995593071
1659103343861219800,2.5352197265625,9.814162254333496,0.22013968229293823,-0.037088751792907715
1659103343870890800,2.544890869140625,9.811769485473633,0.22851456701755524,-0.05503492057323456
1659103343880562000,2.55456201171875,9.80100154876709,0.2309073805809021,-0.06340979784727097
1659103343890232800,2.56423291015625,9.80937671661377,0.23449662327766418,-0.05503492057323456
1659103343899903700,2.57390380859375,9.796216011047363,0.23808585107326508,-0.04666004329919815
1659103343909574700,2.58357470703125,9.812965393066406,0.22372891008853912,-0.0526420995593071
1659103343919245800,2.593245849609375,9.812965393066406,0.22372891008853912,-0.05024927482008934
1659103343928916700,2.602916748046875,9.797411918640137,0.23449662327766418,-0.05503492057323456
1659103343938587600,2.612587646484375,9.814162254333496,0.21415762603282928,-0.039481572806835175
1659103343948258600,2.622258544921875,9.81535816192627,0.23210379481315613,-0.04666004329919815
1659103343957929500,2.631929443359375,9.803394317626953,0.22492532432079315,-0.04905286431312561
1659103343967600600,2.6416005859375,9.80817985534668,0.22851456701755524,-0.04785645380616188
1659103343977271600,2.651271484375,9.817750930786133,0.22971096634864807,-0.04546362906694412
1659103343986942500,2.6609423828125,9.814162254333496,0.22492532432079315,-0.05024927482008934
1659103343996613400,2.67061328125,9.80937671661377,0.23330020904541016,-0.07058826833963394
1659103344006284300,2.6802841796875,9.7998046875,0.23330020904541016,-0.0526420995593071
1659103344015955200,2.689955078125,9.803394317626953,0.22971096634864807,-0.05503492057323456
1659103344025626400,2.69962646484375,9.803394317626953,0.24287149310112,-0.05742774158716202
1659103344035297300,2.70929736328125,9.812965393066406,0.2309073805809021,-0.058624155819416046
1659103344044968200,2.71896826171875,9.814162254333496,0.2356930375099182,-0.04307080805301666
1659103344054639000,2.72863916015625,9.805787086486816,0.24167509377002716,-0.04546362906694412
1659103344064310300,2.738310302734375,9.80100154876709,0.2225325107574463,-0.059820566326379776
1659103344073981200,2.747981201171875,9.810572624206543,0.22612173855304718,-0.05383851006627083
1659103344083652000,2.757652099609375,9.80937671661377,0.23688943684101105,-0.0526420995593071
1659103344093323000,2.767322998046875,9.81535816192627,0.2153540402650833,-0.04426721855998039
1659103344102994200,2.776994140625,9.811769485473633,0.23210379481315613,-0.04905286431312561
1659103344112665000,2.7866650390625,9.805787086486816,0.21655045449733734,-0.0526420995593071
1659103344122336000,2.7963359375,9.817750930786133,0.24167509377002716,-0.06699903309345245
1659103344132007000,2.8060068359375,9.810572624206543,0.23688943684101105,-0.0526420995593071
1659103344141677800,2.815677734375,9.81655502319336,0.23808585107326508,-0.04785645380616188
1659103344151348700,2.8253486328125,9.805787086486816,0.22971096634864807,-0.0526420995593071
1659103344161020000,2.83502001953125,9.811769485473633,0.22492532432079315,-0.058624155819416046
1659103344170690800,2.84469091796875,9.7998046875,0.23449662327766418,-0.05024927482008934
1659103344180361700,2.85436181640625,9.804591178894043,0.24885354936122894,-0.05024927482008934
1659103344190032600,2.86403271484375,9.812965393066406,0.23449662327766418,-0.04426721855998039
1659103344199703800,2.873703857421875,9.817750930786133,0.22013968229293823,-0.04546362906694412
1659103344209374700,2.883374755859375,9.812965393066406,0.2189432680606842,-0.04426721855998039
1659103344219045600,2.893045654296875,9.80937671661377,0.2309073805809021,-0.05024927482008934
1659103344228716800,2.902716796875,9.804591178894043,0.22372891008853912,-0.05623133108019829
1659103344238387700,2.9123876953125,9.80937671661377,0.2189432680606842,-0.05144568532705307
1659103344248058600,2.92205859375,9.805787086486816,0.22612173855304718,-0.04905286431312561
1659103344257729500,2.9317294921875,9.811769485473633,0.22492532432079315,-0.05383851006627083
1659103344267400400,2.941400390625,9.812965393066406,0.22492532432079315,-0.06699903309345245
1659103344277071400,2.9510712890625,9.814162254333496,0.23808585107326508,-0.05144568532705307
1659103344286742500,2.960742431640625,9.81655502319336,0.2189432680606842,-0.03469592705368996
1659103344296413400,2.970413330078125,9.80937671661377,0.22851456701755524,-0.0526420995593071
1659103344306084400,2.98008447265625,9.811769485473633,0.24167509377002716,-0.04426721855998039
1659103344315755300,2.98975537109375,9.822537422180176,0.23210379481315613,-0.058624155819416046
1659103344325426400,2.999426513671875,9.821340560913086,0.2309073805809021,-0.0526420995593071
1659103344335097300,3.009097412109375,9.804591178894043,0.22612173855304718,-0.05144568532705307
1659103344344768300,3.018768310546875,9.812965393066406,0.2309073805809021,-0.040677983313798904
1659103344354439200,3.028439208984375,9.812965393066406,0.2273181527853012,-0.05503492057323456
1659103344364110300,3.0381103515625,9.818947792053223,0.2273181527853012,-0.06819544732570648
1659103344373781200,3.04778125,9.812965393066406,0.23808585107326508,-0.05503492057323456
1659103344383452200,3.0574521484375,9.811769485473633,0.22133609652519226,-0.05383851006627083
1659103344393123000,3.067123046875,9.822537422180176,0.22372891008853912,-0.058624155819416046
1659103344402794000,3.0767939453125,9.806983947753906,0.23808585107326508,-0.02751746028661728
1659103344412465200,3.086465087890625,9.810572624206543,0.2356930375099182,-0.04785645380616188
1659103344422136000,3.096135986328125,9.80937671661377,0.2309073805809021,-0.04785645380616188
1659103344431807000,3.105806884765625,9.81655502319336,0.23688943684101105,-0.05503492057323456
1659103344441478100,3.11547802734375,9.811769485473633,0.22851456701755524,-0.05383851006627083
1659103344451149000,3.125149169921875,9.812965393066406,0.2392822653055191,-0.039481572806835175
1659103344460820000,3.134820068359375,9.824930191040039,0.2356930375099182,-0.04307080805301666
1659103344470491000,3.144490966796875,9.80817985534668,0.24167509377002716,-0.0526420995593071
1659103344480161800,3.154161865234375,9.806983947753906,0.24047867953777313,-0.05503492057323456
1659103344489832700,3.163832763671875,9.787840843200684,0.2225325107574463,-0.05503492057323456
1659103344499503900,3.17350390625,9.812965393066406,0.22612173855304718,-0.03349951654672623
1659103344509174800,3.1831748046875,9.850054740905762,0.2189432680606842,-0.064606212079525
1659103344518845700,3.192845703125,9.821340560913086,0.22372891008853912,-0.058624155819416046
1659103344528516900,3.202516845703125,9.797411918640137,0.22492532432079315,-0.04785645380616188
1659103344538187800,3.212187744140625,9.787840843200684,0.22971096634864807,-0.05503492057323456
1659103344547858700,3.221858642578125,9.80937671661377,0.23688943684101105,-0.05742774158716202
1659103344557529600,3.231529541015625,9.827322959899902,0.2273181527853012,-0.061016976833343506
1659103344567200500,3.241200439453125,9.811769485473633,0.23449662327766418,-0.039481572806835175
1659103344576871700,3.25087158203125,9.814162254333496,0.2356930375099182,-0.0526420995593071
1659103344586542600,3.26054248046875,9.814162254333496,0.22372891008853912,-0.05383851006627083
1659103344596213500,3.270213623046875,9.812965393066406,0.22971096634864807,-0.05024927482008934
1659103344605884400,3.279884521484375,9.81535816192627,0.2225325107574463,-0.06699903309345245
1659103344615555600,3.2895556640625,9.811769485473633,0.22133609652519226,-0.039481572806835175
1659103344625226500,3.2992265625,9.80937671661377,0.22851456701755524,-0.04426721855998039
1659103344634897400,3.3088974609375,9.810572624206543,0.22971096634864807,-0.0526420995593071
1659103344644568300,3.318568359375,9.81535816192627,0.22612173855304718,-0.04785645380616188
1659103344654239500,3.328239501953125,9.80937671661377,0.2309073805809021,-0.05383851006627083
1659103344663910400,3.337910400390625,9.810572624206543,0.23210379481315613,-0.04426721855998039
1659103344673581300,3.347581298828125,9.822537422180176,0.24167509377002716,-0.0526420995593071
1659103344683252200,3.357252197265625,9.817750930786133,0.23808585107326508,-0.05144568532705307
1659103344692923400,3.36692333984375,9.817750930786133,0.2392822653055191,-0.05623133108019829
1659103344702594300,3.37659423828125,9.810572624206543,0.2309073805809021,-0.04905286431312561
1659103344712265200,3.38626513671875,9.81655502319336,0.23808585107326508,-0.05503492057323456
1659103344721936400,3.395936279296875,9.803394317626953,0.2189432680606842,-0.04546362906694412
1659103344731607300,3.405607177734375,9.818947792053223,0.22372891008853912,-0.04666004329919815
1659103344741278200,3.4152783203125,9.81655502319336,0.23449662327766418,-0.059820566326379776
1659103344750949000,3.42494921875,9.80937671661377,0.22492532432079315,-0.07178468257188797
1659103344760620000,3.4346201171875,9.812965393066406,0.23688943684101105,-0.04546362906694412
1659103344770291200,3.444291259765625,9.812965393066406,0.23808585107326508,-0.05144568532705307
1659103344779962000,3.453962158203125,9.814162254333496,0.22013968229293823,-0.05503492057323456
1659103344789633000,3.463633056640625,9.805787086486816,0.2309073805809021,-0.04666004329919815
1659103344799304200,3.47330419921875,9.81535816192627,0.22612173855304718,-0.05623133108019829
1659103344808975000,3.48297509765625,9.814162254333496,0.23210379481315613,-0.07178468257188797
1659103344818646000,3.49264599609375,9.82373332977295,0.23449662327766418,-0.064606212079525
1659103344828317000,3.50231689453125,9.81655502319336,0.2356930375099182,-0.05024927482008934
1659103344837987800,3.51198779296875,9.82373332977295,0.2309073805809021,-0.05742774158716202
1659103344847659000,3.521658935546875,9.814162254333496,0.22971096634864807,-0.05144568532705307
1659103344857330000,3.531329833984375,9.814162254333496,0.23330020904541016,-0.05742774158716202
1659103344867000800,3.541000732421875,9.81655502319336,0.23808585107326508,-0.04307080805301666
1659103344876672000,3.550672119140625,9.820143699645996,0.2309073805809021,-0.04905286431312561
1659103344886343000,3.560343017578125,9.81655502319336,0.23449662327766418,-0.04666004329919815
1659103344896013800,3.570013916015625,9.814162254333496,0.22971096634864807,-0.039481572806835175
1659103344905684700,3.579684814453125,9.81655502319336,0.2309073805809021,-0.05503492057323456
1659103344915356000,3.58935595703125,9.820143699645996,0.22492532432079315,-0.05383851006627083
1659103344925026800,3.59902685546875,9.820143699645996,0.2225325107574463,-0.05623133108019829
1659103344934697700,3.60869775390625,9.817750930786133,0.2225325107574463,-0.05144568532705307
1659103344944368600,3.61836865234375,9.814162254333496,0.2309073805809021,-0.03469592705368996
1659103344954039800,3.628039794921875,9.80937671661377,0.23330020904541016,-0.0526420995593071
1659103344963710700,3.637710693359375,9.804591178894043,0.23808585107326508,-0.04666004329919815
1659103344973381600,3.647381591796875,9.817750930786133,0.24047867953777313,-0.04426721855998039
1659103344983052800,3.657052734375,9.821340560913086,0.24287149310112,-0.05144568532705307
1659103344992723700,3.6667236328125,9.818947792053223,0.2392822653055191,-0.058624155819416046
1659103345002394600,3.67639453125,9.814162254333496,0.2356930375099182,-0.058624155819416046
1659103345012065500,3.6860654296875,9.80817985534668,0.2225325107574463,-0.040677983313798904
1659103345021736400,3.695736328125,9.81655502319336,0.2356930375099182,-0.061016976833343506
1659103345031407600,3.70540771484375,9.821340560913086,0.2309073805809021,-0.05503492057323456
1659103345041078500,3.71507861328125,9.810572624206543,0.23210379481315613,-0.04905286431312561
1659103345050749700,3.724749755859375,9.811769485473633,0.21415762603282928,-0.05144568532705307
1659103345060420600,3.734420654296875,9.803394317626953,0.22851456701755524,-0.058624155819416046
1659103345070091500,3.744091552734375,9.811769485473633,0.22971096634864807,-0.0526420995593071
1659103345079762400,3.753762451171875,9.80937671661377,0.24047867953777313,-0.04905286431312561
1659103345089433300,3.763433349609375,9.812965393066406,0.24047867953777313,-0.058624155819416046
1659103345099104500,3.7731044921875,9.810572624206543,0.23688943684101105,-0.05742774158716202
1659103345108775400,3.782775390625,9.80937671661377,0.23808585107326508,-0.064606212079525
1659103345118446600,3.792446533203125,9.810572624206543,0.22492532432079315,-0.062213387340307236
1659103345128117500,3.802117431640625,9.818947792053223,0.2356930375099182,-0.05144568532705307
1659103345137788400,3.811788330078125,9.821340560913086,0.24526432156562805,-0.059820566326379776
1659103345147459300,3.821459228515625,9.811769485473633,0.2309073805809021,-0.059820566326379776
1659103345157130200,3.831130126953125,9.81655502319336,0.2309073805809021,-0.04905286431312561
1659103345166801400,3.840801513671875,9.81535816192627,0.22971096634864807,-0.04546362906694412
1659103345176472300,3.850472412109375,9.810572624206543,0.2309073805809021,-0.06340979784727097
1659103345186143200,3.860143310546875,9.812965393066406,0.23449662327766418,-0.04785645380616188
1659103345195814400,3.869814453125,9.82373332977295,0.21774685382843018,-0.05144568532705307
1659103345205485300,3.8794853515625,9.818947792053223,0.2309073805809021,-0.064606212079525
1659103345215156200,3.88915625,9.817750930786133,0.22372891008853912,-0.05503492057323456
1659103345224827400,3.898827392578125,9.811769485473633,0.23688943684101105,-0.058624155819416046
1659103345234498300,3.908498291015625,9.81655502319336,0.22612173855304718,-0.05144568532705307
1659103345244169200,3.918169189453125,9.814162254333496,0.23330020904541016,-0.04307080805301666
1659103345253840100,3.927840087890625,9.811769485473633,0.22492532432079315,-0.05144568532705307
1659103345263511300,3.93751123046875,9.81535816192627,0.22612173855304718,-0.05024927482008934
1659103345273182200,3.94718212890625,9.81535816192627,0.2309073805809021,-0.05144568532705307
1659103345282853000,3.95685302734375,9.821340560913086,0.2356930375099182,-0.05623133108019829
1659103345292524300,3.966524169921875,9.81655502319336,0.24167509377002716,-0.06340979784727097
1659103345302195200,3.9761953125,9.811769485473633,0.22612173855304718,-0.04426721855998039
1659103345311866000,3.9858662109375,9.827322959899902,0.22971096634864807,-0.05503492057323456
1659103345321537000,3.995537109375,9.81535816192627,0.22013968229293823,-0.04785645380616188
1659103345331208200,4.005208251953125,9.81655502319336,0.22492532432079315,-0.02512463741004467
1659103345340879000,4.014879150390625,9.779465675354004,0.22851456701755524,-0.04546362906694412
1659103345350550000,4.024550048828125,9.859625816345215,0.24167509377002716,-0.05024927482008934
1659103345360221000,4.034220947265625,9.850054740905762,0.2273181527853012,-0.062213387340307236
1659103345369892000,4.04389208984375,9.791430473327637,0.2309073805809021,-0.04785645380616188
1659103345379563000,4.05356298828125,9.835697174072266,0.2356930375099182,-0.05383851006627083
1659103345389234200,4.063234130859375,9.773484230041504,0.24047867953777313,-0.061016976833343506
1659103345398905000,4.072905029296875,9.850054740905762,0.23688943684101105,-0.06340979784727097
1659103345408576000,4.082575927734375,9.812965393066406,0.23808585107326508,-0.06819544732570648
1659103345418247000,4.092246826171875,9.812965393066406,0.24406790733337402,-0.064606212079525
1659103345427918000,4.10191796875,9.81535816192627,0.23449662327766418,-0.0526420995593071
1659103345437589000,4.111589111328125,9.7998046875,0.2356930375099182,-0.04426721855998039
1659103345447260000,4.121260009765625,9.826126098632812,0.2356930375099182,-0.04785645380616188
1659103345456931000,4.13093115234375,9.820143699645996,0.22492532432079315,-0.04426721855998039
1659103345466602000,4.14060205078125,9.803394317626953,0.22013968229293823,-0.037088751792907715
1659103345476273000,4.15027294921875,9.817750930786133,0.22013968229293823,-0.04666004329919815
1659103345485944000,4.159944091796875,9.814162254333496,0.2225325107574463,-0.04187439754605293
1659103345495615000,4.169614990234375,9.81655502319336,0.22372891008853912,-0.037088751792907715
1659103345505286000,4.179285888671875,9.810572624206543,0.2273181527853012,-0.061016976833343506
1659103345514956800,4.188956787109375,9.824930191040039,0.21774685382843018,-0.0526420995593071
1659103345524628000,4.1986279296875,9.822537422180176,0.22612173855304718,-0.04426721855998039
1659103345534299000,4.208298828125,9.820143699645996,0.24047867953777313,-0.039481572806835175
1659103345543969800,4.2179697265625,9.805787086486816,0.2356930375099182,-0.05144568532705307
1659103345553641000,4.227640869140625,9.817750930786133,0.23808585107326508,-0.062213387340307236
1659103345563311900,4.237311767578125,9.826126098632812,0.2356930375099182,-0.05742774158716202
1659103345572983000,4.246983154296875,9.817750930786133,0.24167509377002716,-0.05623133108019829
1659103345582654000,4.256654052734375,9.812965393066406,0.2392822653055191,-0.061016976833343506
1659103345592324900,4.266324951171875,9.818947792053223,0.2476571500301361,-0.05144568532705307
1659103345601995800,4.275995849609375,9.81655502319336,0.22612173855304718,-0.05144568532705307
1659103345611667000,4.2856669921875,9.818947792053223,0.22851456701755524,-0.040677983313798904
1659103345621337900,4.295337890625,9.822537422180176,0.22013968229293823,-0.04666004329919815
1659103345631008800,4.3050087890625,9.806983947753906,0.22851456701755524,-0.04426721855998039
1659103345640679700,4.3146796875,9.821340560913086,0.22851456701755524,-0.059820566326379776
1659103345650350800,4.324350830078125,9.827322959899902,0.2309073805809021,-0.05623133108019829
1659103345660021800,4.334021728515625,9.814162254333496,0.22851456701755524,-0.040677983313798904
1659103345669693000,4.34369287109375,9.812965393066406,0.22971096634864807,-0.04546362906694412
1659103345679363800,4.35336376953125,9.821340560913086,0.23449662327766418,-0.0526420995593071
1659103345689034800,4.36303466796875,9.820143699645996,0.23688943684101105,-0.061016976833343506
1659103345698706000,4.372705810546875,9.812965393066406,0.24646073579788208,-0.04785645380616188
1659103345708376800,4.382376953125,9.820143699645996,0.24646073579788208,-0.0526420995593071
1659103345718047700,4.3920478515625,9.81655502319336,0.22971096634864807,-0.064606212079525
1659103345727718700,4.40171875,9.826126098632812,0.23330020904541016,-0.062213387340307236
1659103345737389800,4.411389892578125,9.817750930786133,0.23210379481315613,-0.05383851006627083
1659103345747060700,4.421060791015625,9.81535816192627,0.22851456701755524,-0.07417750358581543
1659103345756732000,4.43073193359375,9.821340560913086,0.2309073805809021,-0.05024927482008934
1659103345766402800,4.44040283203125,9.81535816192627,0.22492532432079315,-0.04666004329919815
1659103345776073700,4.45007373046875,9.814162254333496,0.21176479756832123,-0.058624155819416046
1659103345785745000,4.459744873046875,9.80817985534668,0.22971096634864807,-0.04307080805301666
1659103345795415800,4.469415771484375,9.810572624206543,0.22851456701755524,-0.04785645380616188
1659103345805086700,4.479086669921875,9.814162254333496,0.22851456701755524,-0.05144568532705307
1659103345814757600,4.488757568359375,9.826126098632812,0.2225325107574463,-0.05024927482008934
1659103345824428800,4.4984287109375,9.806983947753906,0.2309073805809021,-0.05024927482008934
1659103345834099700,4.508099609375,9.81535816192627,0.23808585107326508,-0.05024927482008934
1659103345843770600,4.5177705078125,9.82373332977295,0.24287149310112,-0.05024927482008934
1659103345853441800,4.52744189453125,9.817750930786133,0.22851456701755524,-0.058624155819416046
1659103345863112700,4.53711279296875,9.818947792053223,0.24406790733337402,-0.059820566326379776
1659103345872784000,4.546783935546875,9.80937671661377,0.2512463629245758,-0.05144568532705307
1659103345882454800,4.556454833984375,9.82373332977295,0.2356930375099182,-0.04905286431312561
1659103345892125700,4.566125732421875,9.824930191040039,0.22492532432079315,-0.05503492057323456
1659103345901796900,4.575796875,9.818947792053223,0.23210379481315613,-0.04187439754605293
1659103345911467800,4.5854677734375,9.806983947753906,0.2273181527853012,-0.038285162299871445
1659103345921138700,4.595138671875,9.822537422180176,0.22133609652519226,-0.05383851006627083
1659103345930809600,4.6048095703125,9.820143699645996,0.22492532432079315,-0.05383851006627083
1659103345940480800,4.614480712890625,9.814162254333496,0.22492532432079315,-0.0526420995593071
1659103345950151700,4.624151611328125,9.817750930786133,0.22851456701755524,-0.05144568532705307
1659103345959822600,4.633822509765625,9.818947792053223,0.2225325107574463,-0.05144568532705307
1659103345969493800,4.64349365234375,9.811769485473633,0.22492532432079315,-0.04307080805301666
1659103345979164700,4.65316455078125,9.805787086486816,0.23330020904541016,-0.04785645380616188
1659103345988835800,4.6628359375,9.814162254333496,0.22492532432079315,-0.058624155819416046
1659103345998506800,4.6725068359375,9.81535816192627,0.2273181527853012,-0.04905286431312561
1659103346008177700,4.682177734375,9.821340560913086,0.2189432680606842,-0.04905286431312561
1659103346017848800,4.691848876953125,9.817750930786133,0.24167509377002716,-0.05742774158716202
1659103346027519700,4.701519775390625,9.80817985534668,0.22133609652519226,-0.05742774158716202
1659103346037190700,4.711190673828125,9.811769485473633,0.2309073805809021,-0.04426721855998039
1659103346046861800,4.72086181640625,9.842875480651855,0.2273181527853012,-0.0526420995593071
1659103346056532700,4.73053271484375,9.810572624206543,0.21176479756832123,-0.04666004329919815
1659103346066203600,4.74020361328125,9.829715728759766,0.2189432680606842,-0.039481572806835175
1659103346075874800,4.749874755859375,9.795019149780273,0.22851456701755524,-0.04905286431312561
1659103346085545700,4.759545654296875,9.832108497619629,0.2356930375099182,-0.061016976833343506
1659103346095217000,4.769216796875,9.814162254333496,0.22971096634864807,-0.05742774158716202
1659103346104887800,4.7788876953125,9.811769485473633,0.23330020904541016,-0.04307080805301666
1659103346114558700,4.788558837890625,9.817750930786133,0.23808585107326508,-0.04905286431312561
1659103346124230000,4.79822998046875,9.814162254333496,0.23330020904541016,-0.05503492057323456
1659103346133900800,4.80790087890625,9.826126098632812,0.21774685382843018,-0.05024927482008934
1659103346143571700,4.81757177734375,9.812965393066406,0.2356930375099182,-0.059820566326379776
1659103346153242600,4.82724267578125,9.811769485473633,0.2309073805809021,-0.06340979784727097
1659103346162913800,4.836913818359375,9.824930191040039,0.22133609652519226,-0.05503492057323456
1659103346172584700,4.846584716796875,9.821340560913086,0.2392822653055191,-0.05503492057323456
1659103346182255600,4.856255615234375,9.817750930786133,0.24167509377002716,-0.05383851006627083
1659103346191926800,4.8659267578125,9.811769485473633,0.21655045449733734,-0.040677983313798904
1659103346201597700,4.87559765625,9.82373332977295,0.23210379481315613,-0.039481572806835175
1659103346211268900,4.885268798828125,9.82373332977295,0.22013968229293823,-0.04426721855998039
1659103346220939800,4.894939697265625,9.812965393066406,0.22133609652519226,-0.05503492057323456
1659103346230611000,4.90461083984375,9.817750930786133,0.23449662327766418,-0.05383851006627083
1659103346240281900,4.91428173828125,9.818947792053223,0.22372891008853912,-0.058624155819416046
1659103346249952800,4.923952880859375,9.826126098632812,0.23210379481315613,-0.062213387340307236
1659103346259624000,4.9336240234375,9.810572624206543,0.23330020904541016,-0.059820566326379776
1659103346269294800,4.943294921875,9.805787086486816,0.2309073805809021,-0.05503492057323456
1659103346278965800,4.9529658203125,9.81535816192627,0.2225325107574463,-0.059820566326379776
1659103346288637000,4.962636962890625,9.818947792053223,0.22851456701755524,-0.05144568532705307
1659103346298307800,4.972307861328125,9.81535816192627,0.24406790733337402,-0.05503492057323456
1659103346307978800,4.981978759765625,9.80817985534668,0.24526432156562805,-0.064606212079525
1659103346317650000,4.99164990234375,9.814162254333496,0.23330020904541016,-0.04666004329919815
1659103346327320800,5.00132080078125,9.812965393066406,0.22492532432079315,-0.04666004329919815
1659103346336992000,5.010991943359375,9.822537422180176,0.22372891008853912,-0.06819544732570648
1659103346346663000,5.020662841796875,9.824930191040039,0.24526432156562805,-0.04546362906694412
1659103346356333800,5.030333740234375,9.818947792053223,0.22612173855304718,-0.04187439754605293
1659103346366005000,5.0400048828125,9.81655502319336,0.23330020904541016,-0.04666004329919815
1659103346375676000,5.049676025390625,9.820143699645996,0.22013968229293823,-0.04426721855998039
1659103346385346800,5.059346923828125,9.828518867492676,0.23330020904541016,-0.05742774158716202
1659103346395018000,5.06901806640625,9.82373332977295,0.23210379481315613,-0.058624155819416046
1659103346404689000,5.07868896484375,9.820143699645996,0.24167509377002716,-0.05742774158716202
1659103346414359800,5.08835986328125,9.814162254333496,0.23330020904541016,-0.05503492057323456
1659103346424031000,5.098031005859375,9.814162254333496,0.24287149310112,-0.05742774158716202
1659103346433702000,5.107701904296875,9.820143699645996,0.23808585107326508,-0.05383851006627083
1659103346443372800,5.117372802734375,9.811769485473633,0.2273181527853012,-0.06340979784727097
1659103346453044000,5.1270439453125,9.818947792053223,0.2392822653055191,-0.04666004329919815
1659103346462715000,5.13671484375,9.822537422180176,0.22971096634864807,-0.05623133108019829
1659103346472386000,5.146385986328125,9.818947792053223,0.22851456701755524,-0.058624155819416046
1659103346482057000,5.156056884765625,9.817750930786133,0.22971096634864807,-0.061016976833343506
1659103346491728100,5.16572802734375,9.830911636352539,0.24047867953777313,-0.0526420995593071
1659103346501399000,5.17539892578125,9.828518867492676,0.22851456701755524,-0.058624155819416046
1659103346511070000,5.185070068359375,9.818947792053223,0.22612173855304718,-0.04546362906694412
1659103346520741000,5.1947412109375,9.81655502319336,0.21415762603282928,-0.061016976833343506
1659103346530412000,5.204412109375,9.827322959899902,0.22133609652519226,-0.05144568532705307
1659103346540083000,5.2140830078125,9.811769485473633,0.23330020904541016,-0.05623133108019829
1659103346549754000,5.223754150390625,9.821340560913086,0.24047867953777313,-0.04905286431312561
1659103346559425000,5.233425048828125,9.810572624206543,0.23449662327766418,-0.05623133108019829
1659103346569096000,5.243095947265625,9.820143699645996,0.24526432156562805,-0.064606212079525
1659103346578767000,5.25276708984375,9.828518867492676,0.23688943684101105,-0.062213387340307236
1659103346588438000,5.26243798828125,9.811769485473633,0.23210379481315613,-0.05024927482008934
1659103346598109200,5.272109130859375,9.812965393066406,0.23330020904541016,-0.04546362906694412
1659103346607780000,5.281780029296875,9.806983947753906,0.23449662327766418,-0.05144568532705307
1659103346617451300,5.291451171875,9.820143699645996,0.2392822653055191,-0.05503492057323456
1659103346627122200,5.3011220703125,9.82373332977295,0.24167509377002716,-0.03349951654672623
1659103346636793000,5.31079296875,9.814162254333496,0.2273181527853012,-0.04426721855998039
1659103346646464300,5.32046435546875,9.821340560913086,0.2273181527853012,-0.06340979784727097
1659103346656135200,5.33013525390625,9.822537422180176,0.22013968229293823,-0.04666004329919815
1659103346665806300,5.339806396484375,9.820143699645996,0.23449662327766418,-0.04666004329919815
1659103346675477200,5.349477294921875,9.834501266479492,0.22851456701755524,-0.05144568532705307
1659103346685148200,5.359148193359375,9.81655502319336,0.2273181527853012,-0.05742774158716202
1659103346694819300,5.3688193359375,9.811769485473633,0.22612173855304718,-0.04666004329919815
1659103346704490200,5.378490234375,9.827322959899902,0.23210379481315613,-0.05503492057323456
1659103346714161200,5.3881611328125,9.82373332977295,0.2392822653055191,-0.04666004329919815
1659103346723832300,5.397832275390625,9.832108497619629,0.22971096634864807,-0.05623133108019829
1659103346733503200,5.407503173828125,9.820143699645996,0.22372891008853912,-0.05623133108019829
1659103346743174400,5.41717431640625,9.80817985534668,0.2225325107574463,-0.062213387340307236
1659103346752845300,5.42684521484375,9.853643417358398,0.22372891008853912,-0.05742774158716202
1659103346762516500,5.4365166015625,9.805787086486816,0.2225325107574463,-0.05024927482008934
1659103346772187400,5.4461875,9.826126098632812,0.23210379481315613,-0.04905286431312561
1659103346781858600,5.455858642578125,9.77109146118164,0.22133609652519226,-0.06939185410737991
1659103346791529500,5.465529541015625,9.869196891784668,0.23210379481315613,-0.04666004329919815
1659103346801200400,5.475200439453125,9.847661972045898,0.22133609652519226,-0.0526420995593071
1659103346810871600,5.48487158203125,9.781859397888184,0.2273181527853012,-0.05623133108019829
1659103346820542500,5.49454248046875,9.821340560913086,0.2309073805809021,-0.04785645380616188
1659103346830213400,5.50421337890625,9.81655502319336,0.23449662327766418,-0.05383851006627083
1659103346839884500,5.513884521484375,9.833304405212402,0.22133609652519226,-0.06340979784727097
1659103346849555500,5.523555419921875,9.80937671661377,0.23449662327766418,-0.0526420995593071
1659103346859226600,5.5332265625,9.818947792053223,0.22851456701755524,-0.05623133108019829
1659103346868897500,5.5428974609375,9.829715728759766,0.22133609652519226,-0.04426721855998039
1659103346878568400,5.552568359375,9.81655502319336,0.23688943684101105,-0.061016976833343506
1659103346888239600,5.562239501953125,9.822537422180176,0.23449662327766418,-0.059820566326379776
1659103346897910500,5.57191064453125,9.81655502319336,0.22492532432079315,-0.05144568532705307
1659103346907581700,5.581581787109375,9.81655502319336,0.22851456701755524,-0.05383851006627083
1659103346917252600,5.591252685546875,9.814162254333496,0.22612173855304718,-0.04546362906694412
1659103346926923800,5.600923828125,9.811769485473633,0.2309073805809021,-0.05383851006627083
1659103346936594700,5.6105947265625,9.817750930786133,0.2356930375099182,-0.04187439754605293
1659103346946265900,5.620265869140625,9.818947792053223,0.22612173855304718,-0.0526420995593071
1659103346955936800,5.629936767578125,9.821340560913086,0.23449662327766418,-0.05383851006627083
1659103346965607700,5.639607666015625,9.81535816192627,0.2273181527853012,-0.059820566326379776
1659103346975278800,5.64927880859375,9.80937671661377,0.23330020904541016,-0.04785645380616188
1659103346984949800,5.65894970703125,9.821340560913086,0.22971096634864807,-0.07178468257188797
1659103346994620700,5.66862060546875,9.818947792053223,0.22612173855304718,-0.038285162299871445
1659103347004291800,5.678291748046875,9.81655502319336,0.2225325107574463,-0.04905286431312561
1659103347013962800,5.687962646484375,9.822537422180176,0.23688943684101105,-0.04905286431312561
1659103347023634000,5.697634033203125,9.829715728759766,0.23449662327766418,-0.04426721855998039
1659103347033304800,5.707304931640625,9.814162254333496,0.22372891008853912,-0.05503492057323456
1659103347042976000,5.71697607421875,9.80937671661377,0.22971096634864807,-0.039481572806835175
1659103347052647000,5.72664697265625,9.817750930786133,0.2309073805809021,-0.05144568532705307
1659103347062317800,5.73631787109375,9.818947792053223,0.22133609652519226,-0.059820566326379776
1659103347071989000,5.745989013671875,9.80937671661377,0.2153540402650833,-0.04546362906694412
1659103347081660000,5.755659912109375,9.832108497619629,0.22492532432079315,-0.040677983313798904
1659103347091331000,5.7653310546875,9.824930191040039,0.2225325107574463,-0.04307080805301666
1659103347101002000,5.775001953125,9.822537422180176,0.21655045449733734,-0.058624155819416046
1659103347110673200,5.784673095703125,9.821340560913086,0.23808585107326508,-0.04666004329919815
1659103347120344000,5.794343994140625,9.821340560913086,0.23808585107326508,-0.04666004329919815
1659103347130015200,5.80401513671875,9.80937671661377,0.23449662327766418,-0.05503492057323456
1659103347139686100,5.81368603515625,9.827322959899902,0.22971096634864807,-0.05623133108019829
1659103347149357000,5.823357177734375,9.82373332977295,0.2225325107574463,-0.04666004329919815
1659103347159028200,5.8330283203125,9.824930191040039,0.22492532432079315,-0.062213387340307236
1659103347168699100,5.84269921875,9.818947792053223,0.22372891008853912,-0.040677983313798904
1659103347178370300,5.852370361328125,9.82373332977295,0.22851456701755524,-0.05024927482008934
1659103347188041200,5.862041259765625,9.81535816192627,0.23210379481315613,-0.04785645380616188
1659103347197712400,5.87171240234375,9.811769485473633,0.23688943684101105,-0.05623133108019829
1659103347207383300,5.88138330078125,9.817750930786133,0.2356930375099182,-0.04905286431312561
1659103347217054200,5.89105419921875,9.818947792053223,0.2392822653055191,-0.07178468257188797
1659103347226725400,5.900725341796875,9.821340560913086,0.22971096634864807,-0.04905286431312561
1659103347236396300,5.910396240234375,9.814162254333496,0.2356930375099182,-0.04546362906694412
1659103347246067500,5.9200673828125,9.824930191040039,0.2356930375099182,-0.05503492057323456
1659103347255738400,5.92973828125,9.828518867492676,0.22492532432079315,-0.04666004329919815
1659103347265409300,5.9394091796875,9.828518867492676,0.23688943684101105,-0.05024927482008934
1659103347275080400,5.94908056640625,9.817750930786133,0.22372891008853912,-0.062213387340307236
1659103347284751400,5.95875146484375,9.820143699645996,0.22971096634864807,-0.040677983313798904
1659103347294422500,5.968422607421875,9.818947792053223,0.22013968229293823,-0.04187439754605293
1659103347304093400,5.978093505859375,9.81535816192627,0.22851456701755524,-0.05623133108019829
1659103347313764600,5.9877646484375,9.82373332977295,0.23449662327766418,-0.05742774158716202
1659103347323435500,5.997435546875,9.81535816192627,0.22133609652519226,-0.05024927482008934
1659103347333106700,6.007106689453125,9.81535816192627,0.2225325107574463,-0.05383851006627083
1659103347342777600,6.016777587890625,9.81535816192627,0.22013968229293823,-0.05144568532705307
1659103347352448800,6.02644873046875,9.820143699645996,0.23210379481315613,-0.05742774158716202
1659103347362119700,6.03611962890625,9.824930191040039,0.2189432680606842,-0.04905286431312561
1659103347371790800,6.045790771484375,9.81655502319336,0.2153540402650833,-0.06699903309345245
1659103347381461800,6.055461669921875,9.81535816192627,0.2356930375099182,-0.058624155819416046
1659103347391133000,6.0651328125,9.812965393066406,0.22851456701755524,-0.04905286431312561
1659103347400803800,6.074803955078125,9.82373332977295,0.2225325107574463,-0.06340979784727097
1659103347410474800,6.084474853515625,9.812965393066406,0.23688943684101105,-0.05503492057323456
1659103347420146000,6.09414599609375,9.817750930786133,0.24047867953777313,-0.04785645380616188
1659103347429816800,6.10381689453125,9.820143699645996,0.22492532432079315,-0.0323031060397625
1659103347439488000,6.113488037109375,9.82373332977295,0.22612173855304718,-0.04546362906694412
1659103347449159000,6.123158935546875,9.82373332977295,0.21774685382843018,-0.04546362906694412
1659103347458830000,6.132830078125,9.81655502319336,0.2309073805809021,-0.062213387340307236
1659103347468501000,6.1425009765625,9.826126098632812,0.21415762603282928,-0.05623133108019829
1659103347478172200,6.152172119140625,9.829715728759766,0.22133609652519226,-0.062213387340307236
1659103347487843000,6.161843017578125,9.832108497619629,0.2225325107574463,-0.062213387340307236
1659103347497514000,6.171513916015625,9.82373332977295,0.22971096634864807,-0.06699903309345245
1659103347507185200,6.18118505859375,9.822537422180176,0.2392822653055191,-0.062213387340307236
1659103347516856000,6.19085595703125,9.817750930786133,0.22013968229293823,-0.06340979784727097
1659103347526527200,6.20052734375,9.822537422180176,0.22372891008853912,-0.04426721855998039
1659103347536198100,6.2101982421875,9.817750930786133,0.22851456701755524,-0.05383851006627083
1659103347545869300,6.219869384765625,9.81535816192627,0.22133609652519226,-0.04546362906694412
1659103347555540200,6.229540283203125,9.820143699645996,0.22492532432079315,-0.05144568532705307
1659103347565211400,6.23921142578125,9.818947792053223,0.22971096634864807,-0.04785645380616188
1659103347574882300,6.24888232421875,9.822537422180176,0.22133609652519226,-0.0526420995593071
1659103347584553200,6.25855322265625,9.820143699645996,0.23330020904541016,-0.04666004329919815
1659103347594224400,6.268224365234375,9.818947792053223,0.23808585107326508,-0.04426721855998039
1659103347603895600,6.2778955078125,9.811769485473633,0.23330020904541016,-0.059820566326379776
1659103347613566500,6.28756640625,9.828518867492676,0.23808585107326508,-0.04905286431312561
1659103347623237600,6.297237548828125,9.812965393066406,0.22851456701755524,-0.05742774158716202
1659103347632908500,6.306908447265625,9.822537422180176,0.22612173855304718,-0.04307080805301666
1659103347642579700,6.316579833984375,9.814162254333496,0.23688943684101105,-0.05503492057323456
1659103347652250600,6.326250732421875,9.81655502319336,0.22971096634864807,-0.04426721855998039
1659103347661921800,6.335921875,9.81655502319336,0.24406790733337402,-0.05503492057323456
1659103347671592700,6.3455927734375,9.82373332977295,0.22013968229293823,-0.04666004329919815
1659103347681263900,6.355263916015625,9.821340560913086,0.23688943684101105,-0.05383851006627083
1659103347690934800,6.364934814453125,9.81535816192627,0.24047867953777313,-0.05144568532705307
1659103347700605700,6.374605712890625,9.81655502319336,0.22971096634864807,-0.04666004329919815
1659103347710276900,6.38427685546875,9.81535816192627,0.23330020904541016,-0.05383851006627083
1659103347719947800,6.39394775390625,9.810572624206543,0.2356930375099182,-0.04785645380616188
1659103347729619000,6.403618896484375,9.826126098632812,0.23688943684101105,-0.04905286431312561
1659103347739289900,6.413289794921875,9.81535816192627,0.23808585107326508,-0.05623133108019829
1659103347748961000,6.4229609375,9.821340560913086,0.22971096634864807,-0.059820566326379776
1659103347758632000,6.4326318359375,9.812965393066406,0.2273181527853012,-0.06580262631177902
1659103347768303000,6.44230322265625,9.818947792053223,0.22013968229293823,-0.04546362906694412
1659103347777974000,6.45197412109375,9.82373332977295,0.22851456701755524,-0.040677983313798904
1659103347787645200,6.461645263671875,9.818947792053223,0.22851456701755524,-0.04426721855998039
1659103347797316000,6.471316162109375,9.828518867492676,0.23449662327766418,-0.061016976833343506
1659103347806987300,6.4809873046875,9.81655502319336,0.23808585107326508,-0.04666004329919815
1659103347816658200,6.490658203125,9.82373332977295,0.2392822653055191,-0.04785645380616188
1659103347826329300,6.500329345703125,9.821340560913086,0.22013968229293823,-0.04666004329919815
1659103347836000300,6.510000244140625,9.820143699645996,0.23210379481315613,-0.05503492057323456
1659103347845671400,6.51967138671875,9.817750930786133,0.2273181527853012,-0.04666004329919815
1659103347855342300,6.52934228515625,9.81535816192627,0.23210379481315613,-0.0526420995593071
1659103347865013200,6.53901318359375,9.818947792053223,0.23808585107326508,-0.039481572806835175
1659103347874684400,6.548684326171875,9.827322959899902,0.22971096634864807,-0.04666004329919815
1659103347884355300,6.558355224609375,9.822537422180176,0.22971096634864807,-0.04905286431312561
1659103347894026500,6.568026611328125,9.817750930786133,0.23449662327766418,-0.039481572806835175
1659103347903697400,6.577697509765625,9.821340560913086,0.2356930375099182,-0.04666004329919815
1659103347913368600,6.58736865234375,9.81535816192627,0.20937198400497437,-0.05144568532705307
1659103347923039500,6.59703955078125,9.810572624206543,0.22133609652519226,-0.0526420995593071
1659103347932710700,6.606710693359375,9.830911636352539,0.24167509377002716,-0.05742774158716202
1659103347942381600,6.616381591796875,9.82373332977295,0.24167509377002716,-0.05503492057323456
1659103347952052700,6.626052734375,9.817750930786133,0.22492532432079315,-0.06340979784727097
1659103347961723600,6.6357236328125,9.820143699645996,0.2356930375099182,-0.04905286431312561
1659103347971394800,6.645394775390625,9.824930191040039,0.24047867953777313,-0.04905286431312561
1659103347981065700,6.655065673828125,9.817750930786133,0.23808585107326508,-0.04666004329919815
1659103347990737000,6.66473681640625,9.818947792053223,0.22372891008853912,-0.04187439754605293
1659103348000407800,6.67440771484375,9.811769485473633,0.2273181527853012,-0.04666004329919815
1659103348010079000,6.684078857421875,9.810572624206543,0.2225325107574463,-0.06699903309345245
1659103348019750000,6.69375,9.812965393066406,0.22971096634864807,-0.035892341285943985
1659103348029421000,6.703421142578125,9.818947792053223,0.23808585107326508,-0.05144568532705307
1659103348039092000,6.713092041015625,9.82373332977295,0.2105683982372284,-0.04426721855998039
1659103348048763100,6.72276318359375,9.820143699645996,0.22851456701755524,-0.064606212079525
1659103348058434000,6.73243408203125,9.811769485473633,0.23449662327766418,-0.05503492057323456
1659103348068105200,6.742105224609375,9.826126098632812,0.23688943684101105,-0.05144568532705307
1659103348077776400,6.7517763671875,9.821340560913086,0.22492532432079315,-0.05623133108019829
1659103348087447300,6.761447265625,9.817750930786133,0.21774685382843018,-0.05144568532705307
1659103348097118500,6.771118408203125,9.814162254333496,0.2273181527853012,-0.058624155819416046
1659103348106789400,6.780789306640625,9.812965393066406,0.22372891008853912,-0.04546362906694412
1659103348116460500,6.79046044921875,9.822537422180176,0.23449662327766418,-0.04905286431312561
1659103348126131500,6.80013134765625,9.810572624206543,0.22612173855304718,-0.058624155819416046
1659103348135802600,6.809802734375,9.81535816192627,0.23210379481315613,-0.05742774158716202
1659103348145473500,6.8194736328125,9.824930191040039,0.22372891008853912,-0.0526420995593071
1659103348155144700,6.829144775390625,9.81655502319336,0.22612173855304718,-0.05024927482008934
1659103348164815600,6.838815673828125,9.826126098632812,0.21774685382843018,-0.04546362906694412
1659103348174486800,6.84848681640625,9.814162254333496,0.22851456701755524,-0.04666004329919815
1659103348184157700,6.85815771484375,9.826126098632812,0.22851456701755524,-0.04426721855998039
1659103348193828900,6.867828857421875,9.82373332977295,0.2309073805809021,-0.035892341285943985
1659103348203499800,6.877499755859375,9.805787086486816,0.22851456701755524,-0.040677983313798904
1659103348213171000,6.8871708984375,9.822537422180176,0.2309073805809021,-0.058624155819416046
1659103348222841900,6.896841796875,9.817750930786133,0.22612173855304718,-0.05383851006627083
1659103348232513000,6.906512939453125,9.833304405212402,0.22971096634864807,-0.05742774158716202
1659103348242184000,6.916183837890625,9.817750930786133,0.22372891008853912,-0.04905286431312561
1659103348251855000,6.925855224609375,9.81535816192627,0.22492532432079315,-0.05383851006627083
1659103348261526000,6.935526123046875,9.814162254333496,0.22851456701755524,-0.04546362906694412
1659103348271197200,6.945197265625,9.81655502319336,0.22372891008853912,-0.04426721855998039
1659103348280868000,6.9548681640625,9.80817985534668,0.22612173855304718,-0.05024927482008934
1659103348290539300,6.964539306640625,9.818947792053223,0.22492532432079315,-0.04785645380616188
1659103348300210200,6.974210205078125,9.81535816192627,0.23210379481315613,-0.04785645380616188
1659103348309881300,6.98388134765625,9.81535816192627,0.25363919138908386,-0.0526420995593071
1659103348319552300,6.99355224609375,9.821340560913086,0.22492532432079315,-0.04785645380616188
1659103348329223400,7.003223388671875,9.82373332977295,0.2273181527853012,-0.05503492057323456
1659103348338894300,7.012894287109375,9.828518867492676,0.23688943684101105,-0.061016976833343506
1659103348348565500,7.0225654296875,9.814162254333496,0.2273181527853012,-0.05024927482008934
1659103348358236400,7.032236328125,9.822537422180176,0.2392822653055191,-0.05503492057323456
1659103348367907600,7.041907470703125,9.824930191040039,0.23449662327766418,-0.04666004329919815
1659103348377578500,7.05157861328125,9.817750930786133,0.23210379481315613,-0.05623133108019829
1659103348387249700,7.061249755859375,9.811769485473633,0.23688943684101105,-0.040677983313798904
1659103348396920600,7.070920654296875,9.81535816192627,0.22971096634864807,-0.0526420995593071
1659103348406591700,7.080591796875,9.820143699645996,0.2309073805809021,-0.040677983313798904
1659103348416263000,7.090262939453125,9.81535816192627,0.2225325107574463,-0.05623133108019829
1659103348425933800,7.099933837890625,9.80937671661377,0.23330020904541016,-0.04905286431312561
1659103348435605000,7.10960498046875,9.81655502319336,0.2309073805809021,-0.05383851006627083
1659103348445276000,7.11927587890625,9.811769485473633,0.22133609652519226,-0.05503492057323456
1659103348454947000,7.128947021484375,9.81655502319336,0.22492532432079315,-0.05742774158716202
1659103348464618000,7.138617919921875,9.817750930786133,0.22133609652519226,-0.064606212079525
1659103348474289200,7.1482890625,9.814162254333496,0.22013968229293823,-0.05742774158716202
1659103348483960000,7.1579599609375,9.80937671661377,0.22372891008853912,-0.06340979784727097
1659103348493631200,7.16763134765625,9.811769485473633,0.22851456701755524,-0.05742774158716202
1659103348503302100,7.17730224609375,9.821340560913086,0.22851456701755524,-0.058624155819416046
1659103348512973300,7.186973388671875,9.821340560913086,0.23688943684101105,-0.05503492057323456
1659103348522644200,7.196644287109375,9.817750930786133,0.2225325107574463,-0.05144568532705307
1659103348532315400,7.2063154296875,9.817750930786133,0.2309073805809021,-0.04905286431312561
1659103348541986300,7.215986328125,9.820143699645996,0.22851456701755524,-0.05024927482008934
1659103348551657500,7.225657470703125,9.80817985534668,0.2273181527853012,-0.05623133108019829
1659103348561328400,7.235328369140625,9.821340560913086,0.22971096634864807,-0.04307080805301666
1659103348570999600,7.24499951171875,9.827322959899902,0.2309073805809021,-0.038285162299871445
1659103348580670500,7.25467041015625,9.81535816192627,0.22372891008853912,-0.04187439754605293
1659103348590341600,7.264341552734375,9.81655502319336,0.22612173855304718,-0.05024927482008934
1659103348600012800,7.2740126953125,9.814162254333496,0.23330020904541016,-0.05623133108019829
1659103348609683700,7.28368359375,9.822537422180176,0.2392822653055191,-0.05623133108019829
1659103348619355000,7.29335498046875,9.820143699645996,0.22133609652519226,-0.05503492057323456
1659103348629025800,7.30302587890625,9.7998046875,0.2392822653055191,-0.039481572806835175
1659103348638697000,7.312697021484375,9.81535816192627,0.2392822653055191,-0.0526420995593071
1659103348648367900,7.322367919921875,9.81535816192627,0.23808585107326508,-0.05742774158716202
1659103348658039000,7.3320390625,9.811769485473633,0.23330020904541016,-0.039481572806835175
1659103348667710000,7.3417099609375,9.811769485473633,0.24406790733337402,-0.04546362906694412
1659103348677381000,7.351381103515625,9.803394317626953,0.23808585107326508,-0.05742774158716202
1659103348687052000,7.361052001953125,9.81655502319336,0.24047867953777313,-0.05144568532705307
1659103348696723200,7.37072314453125,9.814162254333496,0.2273181527853012,-0.04187439754605293
1659103348706394400,7.380394287109375,9.81655502319336,0.22372891008853912,-0.05024927482008934
1659103348716065300,7.390065185546875,9.817750930786133,0.2309073805809021,-0.058624155819416046
1659103348725736400,7.399736328125,9.821340560913086,0.2225325107574463,-0.04187439754605293
1659103348735407400,7.409407470703125,9.812965393066406,0.24406790733337402,-0.05623133108019829
1659103348745078500,7.41907861328125,9.822537422180176,0.23688943684101105,-0.04426721855998039
1659103348754749400,7.42874951171875,9.821340560913086,0.2392822653055191,-0.05383851006627083
1659103348764420600,7.438420654296875,9.822537422180176,0.2225325107574463,-0.04307080805301666
1659103348774091500,7.448091552734375,9.80937671661377,0.2356930375099182,-0.05024927482008934
1659103348783762700,7.4577626953125,9.81655502319336,0.2273181527853012,-0.05742774158716202
1659103348793433600,7.46743359375,9.817750930786133,0.2356930375099182,-0.05742774158716202
1659103348803104800,7.477104736328125,9.81655502319336,0.2309073805809021,-0.06699903309345245
1659103348812776000,7.48677587890625,9.821340560913086,0.2309073805809021,-0.062213387340307236
1659103348822446800,7.49644677734375,9.817750930786133,0.2392822653055191,-0.05144568532705307
1659103348832118000,7.506117919921875,9.810572624206543,0.22492532432079315,-0.04666004329919815
1659103348841789000,7.515788818359375,9.81655502319336,0.22013968229293823,-0.040677983313798904
1659103348851460000,7.525460205078125,9.806983947753906,0.24167509377002716,-0.04307080805301666
1659103348861131000,7.535131103515625,9.822537422180176,0.23330020904541016,-0.04785645380616188
1659103348870802200,7.54480224609375,9.842875480651855,0.21655045449733734,-0.040677983313798904
1659103348880473000,7.55447314453125,9.811769485473633,0.23330020904541016,-0.04785645380616188
1659103348890144300,7.564144287109375,9.817750930786133,0.21774685382843018,-0.0526420995593071
1659103348899815400,7.5738154296875,9.803394317626953,0.2309073805809021,-0.04187439754605293
1659103348909486300,7.583486328125,9.840482711791992,0.2309073805809021,-0.05623133108019829
1659103348919157500,7.593157470703125,9.80817985534668,0.23330020904541016,-0.06699903309345245
1659103348928828400,7.602828369140625,9.811769485473633,0.22372891008853912,-0.0526420995593071
1659103348938499600,7.61249951171875,9.812965393066406,0.23808585107326508,-0.05623133108019829
1659103348948170500,7.62217041015625,9.811769485473633,0.22971096634864807,-0.0526420995593071
1659103348957841700,7.631841552734375,9.828518867492676,0.23688943684101105,-0.05024927482008934
1659103348967512600,7.6415126953125,9.80937671661377,0.2309073805809021,-0.05144568532705307
1659103348977183700,7.651183837890625,9.81535816192627,0.2273181527853012,-0.04546362906694412
1659103348986855000,7.66085498046875,9.806983947753906,0.21774685382843018,-0.05623133108019829
1659103348996525800,7.67052587890625,9.811769485473633,0.23449662327766418,-0.039481572806835175
1659103349006197000,7.680197021484375,9.811769485473633,0.21655045449733734,-0.04546362906694412
1659103349015868000,7.689867919921875,9.814162254333496,0.22133609652519226,-0.05144568532705307
1659103349025539000,7.6995390625,9.81655502319336,0.23808585107326508,-0.04785645380616188
1659103349035210000,7.7092099609375,9.818947792053223,0.24167509377002716,-0.04546362906694412
1659103349044881200,7.718881103515625,9.81535816192627,0.22492532432079315,-0.05024927482008934
1659103349054552300,7.72855224609375,9.81535816192627,0.23688943684101105,-0.04785645380616188
1659103349064223200,7.73822314453125,9.81535816192627,0.24047867953777313,-0.06340979784727097
1659103349073894400,7.747894287109375,9.818947792053223,0.2392822653055191,-0.04905286431312561
1659103349083565300,7.7575654296875,9.814162254333496,0.22971096634864807,-0.04426721855998039
1659103349093236500,7.767236572265625,9.814162254333496,0.23688943684101105,-0.05144568532705307
1659103349102907400,7.776907470703125,9.80937671661377,0.2356930375099182,-0.04785645380616188
1659103349112578600,7.78657861328125,9.820143699645996,0.21176479756832123,-0.058624155819416046
1659103349122249500,7.79624951171875,9.817750930786133,0.24047867953777313,-0.05503492057323456
1659103349131920600,7.805920654296875,9.810572624206543,0.22133609652519226,-0.05144568532705307
1659103349141591600,7.815591552734375,9.818947792053223,0.22133609652519226,-0.05742774158716202
1659103349151262700,7.8252626953125,9.81655502319336,0.22492532432079315,-0.05503492057323456
1659103349160933600,7.83493359375,9.806983947753906,0.22492532432079315,-0.05742774158716202
1659103349170604800,7.844604736328125,9.81535816192627,0.2392822653055191,-0.05623133108019829
1659103349180276000,7.85427587890625,9.811769485473633,0.22851456701755524,-0.059820566326379776
1659103349189947000,7.86394677734375,9.80817985534668,0.22971096634864807,-0.059820566326379776
1659103349199618000,7.8736181640625,9.822537422180176,0.22971096634864807,-0.0526420995593071
1659103349209289000,7.8832890625,9.80817985534668,0.23449662327766418,-0.038285162299871445
1659103349218960100,7.892960205078125,9.797411918640137,0.2392822653055191,-0.05383851006627083
1659103349228631000,7.902631103515625,9.81655502319336,0.23449662327766418,-0.05383851006627083
1659103349238302200,7.91230224609375,9.820143699645996,0.2309073805809021,-0.04905286431312561
1659103349247973400,7.921973388671875,9.805787086486816,0.2309073805809021,-0.058624155819416046
1659103349257644300,7.931644287109375,9.820143699645996,0.22612173855304718,-0.037088751792907715
1659103349267315500,7.9413154296875,9.814162254333496,0.22971096634864807,-0.05503492057323456
1659103349276986400,7.950986328125,9.821340560913086,0.22492532432079315,-0.058624155819416046
1659103349286657500,7.960657470703125,9.812965393066406,0.23330020904541016,-0.05623133108019829
1659103349296328400,7.970328369140625,9.81535816192627,0.21774685382843018,-0.05742774158716202
1659103349305999600,7.97999951171875,9.817750930786133,0.22372891008853912,-0.062213387340307236
1659103349315670800,7.9896708984375,9.80817985534668,0.24287149310112,-0.0526420995593071
1659103349325341700,7.999341796875,9.80937671661377,0.21296121180057526,-0.04307080805301666
1659103349335012900,8.009012939453125,9.81535816192627,0.2309073805809021,-0.04666004329919815
1659103349344683800,8.018683837890626,9.814162254333496,0.22013968229293823,-0.05144568532705307
1659103349354355000,8.02835498046875,9.80817985534668,0.24287149310112,-0.05503492057323456
1659103349364025900,8.03802587890625,9.814162254333496,0.2309073805809021,-0.05024927482008934
1659103349373697000,8.047697021484375,9.812965393066406,0.24526432156562805,-0.04905286431312561
1659103349383368200,8.0573681640625,9.817750930786133,0.2309073805809021,-0.04666004329919815
1659103349393039000,8.0670390625,9.812965393066406,0.23210379481315613,-0.03349951654672623
1659103349402710300,8.076710205078125,9.806983947753906,0.22612173855304718,-0.0526420995593071
1659103349412381200,8.086381103515626,9.814162254333496,0.23688943684101105,-0.05503492057323456
1659103349422052400,8.09605224609375,9.811769485473633,0.23449662327766418,-0.05024927482008934
1659103349431723500,8.1057236328125,9.812965393066406,0.2225325107574463,-0.05144568532705307
1659103349441394400,8.11539453125,9.822537422180176,0.2356930375099182,-0.04426721855998039
1659103349451065600,8.125065673828125,9.812965393066406,0.2189432680606842,-0.04785645380616188
1659103349460736500,8.134736572265625,9.811769485473633,0.22971096634864807,-0.04905286431312561
1659103349470407700,8.14440771484375,9.817750930786133,0.2225325107574463,-0.059820566326379776
1659103349480078800,8.154078857421876,9.824930191040039,0.23330020904541016,-0.04666004329919815
1659103349489749800,8.163749755859374,9.81535816192627,0.2309073805809021,-0.039481572806835175
1659103349499421000,8.1734208984375,9.811769485473633,0.23449662327766418,-0.0526420995593071
1659103349509091800,8.183091796875,9.814162254333496,0.2309073805809021,-0.04785645380616188
1659103349518763000,8.192762939453125,9.81655502319336,0.22612173855304718,-0.06939185410737991
1659103349528434000,8.202433837890625,9.814162254333496,0.22612173855304718,-0.04666004329919815
1659103349538105000,8.21210498046875,9.81535816192627,0.23688943684101105,-0.064606212079525
1659103349547776300,8.2217763671875,9.805787086486816,0.2273181527853012,-0.040677983313798904
1659103349557447200,8.231447265625,9.81535816192627,0.24047867953777313,-0.04666004329919815
1659103349567118300,8.241118408203125,9.80937671661377,0.23449662327766418,-0.05623133108019829
1659103349576789200,8.250789306640625,9.803394317626953,0.2189432680606842,-0.05383851006627083
1659103349586460400,8.26046044921875,9.818947792053223,0.23210379481315613,-0.04426721855998039
1659103349596131600,8.270131591796876,9.814162254333496,0.21774685382843018,-0.04785645380616188
1659103349605802500,8.279802490234376,9.810572624206543,0.24526432156562805,-0.05503492057323456
1659103349615473700,8.2894736328125,9.804591178894043,0.23808585107326508,-0.05383851006627083
1659103349625144600,8.29914453125,9.80100154876709,0.2356930375099182,-0.04785645380616188
1659103349634815700,8.308815673828125,9.82373332977295,0.22492532432079315,-0.04785645380616188
1659103349644486700,8.318486572265625,9.830911636352539,0.2309073805809021,-0.05144568532705307
1659103349654157800,8.32815771484375,9.812965393066406,0.22612173855304718,-0.06939185410737991
1659103349663828700,8.337828857421876,9.811769485473633,0.2356930375099182,-0.04426721855998039
1659103349673500000,8.3475,9.797411918640137,0.23808585107326508,-0.05383851006627083
1659103349683171000,8.357171142578125,9.827322959899902,0.23688943684101105,-0.05623133108019829
1659103349692842000,8.366842041015625,9.803394317626953,0.24526432156562805,-0.05623133108019829
1659103349702513200,8.37651318359375,9.80817985534668,0.2309073805809021,-0.05383851006627083
1659103349712184000,8.38618408203125,9.811769485473633,0.24167509377002716,-0.05623133108019829
1659103349721855200,8.395855224609376,9.826126098632812,0.23330020904541016,-0.035892341285943985
1659103349731526400,8.4055263671875,9.817750930786133,0.2273181527853012,-0.04546362906694412
1659103349741197300,8.415197265625,9.80100154876709,0.2356930375099182,-0.05623133108019829
1659103349750868500,8.424868408203125,9.817750930786133,0.2225325107574463,-0.05383851006627083
1659103349760539400,8.434539306640625,9.810572624206543,0.2309073805809021,-0.05623133108019829
1659103349770210600,8.44421044921875,9.811769485473633,0.2153540402650833,-0.038285162299871445
1659103349779881700,8.4538818359375,9.81655502319336,0.22492532432079315,-0.04666004329919815
1659103349789552600,8.463552734375,9.814162254333496,0.22492532432079315,-0.040677983313798904
1659103349799223800,8.473223876953124,9.81535816192627,0.2309073805809021,-0.059820566326379776
1659103349808894700,8.482894775390625,9.812965393066406,0.22492532432079315,-0.0526420995593071
1659103349818566000,8.49256591796875,9.804591178894043,0.23210379481315613,-0.059820566326379776
1659103349828237000,8.502237060546875,9.814162254333496,0.23808585107326508,-0.05144568532705307
1659103349837908000,8.511907958984375,9.812965393066406,0.24047867953777313,-0.064606212079525
1659103349847579100,8.5215791015625,9.817750930786133,0.24287149310112,-0.039481572806835175
1659103349857250000,8.53125,9.814162254333496,0.24167509377002716,-0.05024927482008934
1659103349866921200,8.540921142578124,9.80219841003418,0.24885354936122894,-0.05144568532705307
1659103349876592400,8.55059228515625,9.81535816192627,0.22612173855304718,-0.05742774158716202
1659103349886263300,8.56026318359375,9.818947792053223,0.2309073805809021,-0.040677983313798904
1659103349895934500,8.5699345703125,9.81655502319336,0.2273181527853012,-0.05623133108019829
1659103349905605400,8.57960546875,9.804591178894043,0.2392822653055191,-0.04546362906694412
1659103349915276500,8.589276611328126,9.812965393066406,0.22612173855304718,-0.04426721855998039
1659103349924947700,8.59894775390625,9.811769485473633,0.22372891008853912,-0.04426721855998039
1659103349934618600,8.60861865234375,9.810572624206543,0.23449662327766418,-0.05623133108019829
1659103349944289800,8.618289794921875,9.81655502319336,0.22851456701755524,-0.05623133108019829
1659103349953961000,8.6279609375,9.821340560913086,0.24167509377002716,-0.04546362906694412
1659103349963631900,8.6376318359375,9.826126098632812,0.24047867953777313,-0.05144568532705307
1659103349973303000,8.647302978515626,9.820143699645996,0.2392822653055191,-0.0526420995593071
1659103349982974000,8.656973876953124,9.814162254333496,0.24047867953777313,-0.058624155819416046
1659103349992645000,8.66664501953125,9.811769485473633,0.22971096634864807,-0.062213387340307236
1659103350002316000,8.67631591796875,9.806983947753906,0.23449662327766418,-0.0526420995593071
1659103350011987200,8.6859873046875,9.804591178894043,0.24167509377002716,-0.0526420995593071
1659103350021658000,8.695658203125,9.820143699645996,0.24406790733337402,-0.04905286431312561
1659103350031329300,8.705329345703126,9.818947792053223,0.23210379481315613,-0.04666004329919815
1659103350041000400,8.71500048828125,9.814162254333496,0.2225325107574463,-0.05503492057323456
1659103350050671400,8.72467138671875,9.811769485473633,0.2309073805809021,-0.04187439754605293
1659103350060342500,8.734342529296875,9.811769485473633,0.22612173855304718,-0.05024927482008934
1659103350070013400,8.744013427734375,9.80817985534668,0.22971096634864807,-0.04307080805301666
1659103350079684600,8.7536845703125,9.810572624206543,0.22372891008853912,-0.04546362906694412
1659103350089355800,8.763355712890625,9.806983947753906,0.22851456701755524,-0.05383851006627083
1659103350099026700,8.773026611328126,9.80219841003418,0.2309073805809021,-0.05503492057323456
1659103350108697900,8.78269775390625,9.821340560913086,0.24406790733337402,-0.05383851006627083
1659103350118368800,8.79236865234375,9.81655502319336,0.22372891008853912,-0.06580262631177902
1659103350128040000,8.8020400390625,9.805787086486816,0.23688943684101105,-0.058624155819416046
1659103350137711000,8.811711181640625,9.806983947753906,0.22971096634864807,-0.0526420995593071
1659103350147382000,8.821382080078125,9.805787086486816,0.2273181527853012,-0.05024927482008934
1659103350157053200,8.83105322265625,9.814162254333496,0.2309073805809021,-0.05024927482008934
1659103350166724400,8.840724365234376,9.80817985534668,0.23330020904541016,-0.059820566326379776
1659103350176395300,8.850395263671874,9.803394317626953,0.2273181527853012,-0.058624155819416046
1659103350186066400,8.86006640625,9.81535816192627,0.21774685382843018,-0.05383851006627083
1659103350195737300,8.8697373046875,9.810572624206543,0.2392822653055191,-0.0526420995593071
1659103350205408500,8.879408447265625,9.80937671661377,0.2392822653055191,-0.05144568532705307
1659103350215079700,8.88907958984375,9.814162254333496,0.2392822653055191,-0.05503492057323456
1659103350224750600,8.89875048828125,9.81655502319336,0.23688943684101105,-0.05623133108019829
1659103350234421800,8.908421875,9.80100154876709,0.23688943684101105,-0.05503492057323456
1659103350244093000,8.918093017578125,9.810572624206543,0.23688943684101105,-0.05742774158716202
1659103350253763800,8.927763916015625,9.811769485473633,0.23210379481315613,-0.05144568532705307
1659103350263435000,8.93743505859375,9.81535816192627,0.22851456701755524,-0.05623133108019829
1659103350273106000,8.94710595703125,9.81655502319336,0.22851456701755524,-0.05383851006627083
1659103350282777000,8.956777099609376,9.821340560913086,0.2392822653055191,-0.04905286431312561
1659103350292448300,8.9664482421875,9.810572624206543,0.23210379481315613,-0.062213387340307236
1659103350302119200,8.976119140625,9.814162254333496,0.23449662327766418,-0.05383851006627083
1659103350311790300,8.985790283203125,9.812965393066406,0.22612173855304718,-0.04905286431312561
1659103350321461200,8.995461181640625,9.803394317626953,0.23449662327766418,-0.05742774158716202
1659103350331132400,9.00513232421875,9.821340560913086,0.2309073805809021,-0.04426721855998039
1659103350340803300,9.01480322265625,9.821340560913086,0.23210379481315613,-0.04426721855998039
1659103350350474500,9.024474609375,9.814162254333496,0.21774685382843018,-0.05144568532705307
1659103350360145700,9.034145751953124,9.81535816192627,0.23808585107326508,-0.05623133108019829
1659103350369816600,9.043816650390625,9.812965393066406,0.23330020904541016,-0.04187439754605293
1659103350379487700,9.05348779296875,9.812965393066406,0.23688943684101105,-0.04666004329919815
1659103350389158700,9.06315869140625,9.812965393066406,0.2309073805809021,-0.05383851006627083
1659103350398829800,9.072829833984375,9.80937671661377,0.24406790733337402,-0.05742774158716202
1659103350408501000,9.0825009765625,9.805787086486816,0.23210379481315613,-0.05383851006627083
1659103350418172000,9.092171875,9.805787086486816,0.23330020904541016,-0.05623133108019829
1659103350427843000,9.101843017578124,9.812965393066406,0.2356930375099182,-0.05742774158716202
1659103350437514200,9.11151416015625,9.805787086486816,0.2356930375099182,-0.0729810893535614
1659103350447185200,9.12118505859375,9.820143699645996,0.2309073805809021,-0.06340979784727097
1659103350456856300,9.130856201171875,9.806983947753906,0.22133609652519226,-0.05623133108019829
1659103350466527500,9.140527587890626,9.80219841003418,0.23330020904541016,-0.05742774158716202
1659103350476198400,9.150198486328126,9.812965393066406,0.22851456701755524,-0.05503492057323456
1659103350485869600,9.15986962890625,9.806983947753906,0.22612173855304718,-0.05144568532705307
1659103350495540500,9.16954052734375,9.806983947753906,0.23449662327766418,-0.04666004329919815
1659103350505211600,9.179211669921875,9.804591178894043,0.2309073805809021,-0.05144568532705307
1659103350514882800,9.1888828125,9.80937671661377,0.2309073805809021,-0.05144568532705307
1659103350524553700,9.1985537109375,9.806983947753906,0.22133609652519226,-0.06340979784727097
1659103350534225000,9.208224853515626,9.806983947753906,0.25004997849464417,-0.04187439754605293
1659103350543896000,9.21789599609375,9.811769485473633,0.2392822653055191,-0.05024927482008934
1659103350553567000,9.22756689453125,9.80817985534668,0.22851456701755524,-0.04546362906694412
1659103350563238100,9.237238037109375,9.81535816192627,0.2392822653055191,-0.05503492057323456
1659103350572909000,9.246908935546875,9.814162254333496,0.22971096634864807,-0.04426721855998039
1659103350582580200,9.256580322265625,9.814162254333496,0.24167509377002716,-0.04307080805301666
1659103350592251100,9.266251220703126,9.80937671661377,0.2309073805809021,-0.05503492057323456
1659103350601922300,9.27592236328125,9.80817985534668,0.22372891008853912,-0.05383851006627083
1659103350611593500,9.285593505859374,9.80937671661377,0.22013968229293823,-0.05144568532705307
1659103350621264400,9.295264404296875,9.804591178894043,0.23808585107326508,-0.04785645380616188
1659103350630935600,9.304935546875,9.820143699645996,0.2356930375099182,-0.0526420995593071
1659103350640606500,9.3146064453125,9.81655502319336,0.23449662327766418,-0.040677983313798904
1659103350650277600,9.324277587890625,9.806983947753906,0.25244277715682983,-0.0526420995593071
1659103350659948800,9.33394873046875,9.820143699645996,0.23808585107326508,-0.04666004329919815
1659103350669619700,9.34361962890625,9.826126098632812,0.2153540402650833,-0.04666004329919815
1659103350679291000,9.353290771484374,9.812965393066406,0.22492532432079315,-0.05383851006627083
1659103350688962000,9.362962158203125,9.81655502319336,0.23449662327766418,-0.062213387340307236
1659103350698633000,9.372633056640625,9.820143699645996,0.22851456701755524,-0.05503492057323456
1659103350708304100,9.38230419921875,9.80817985534668,0.22851456701755524,-0.04785645380616188
1659103350717975300,9.391975341796876,9.810572624206543,0.24406790733337402,-0.04785645380616188
1659103350727646200,9.401646240234374,9.806983947753906,0.2309073805809021,-0.035892341285943985
1659103350737317400,9.4113173828125,9.814162254333496,0.22971096634864807,-0.05503492057323456
1659103350746988500,9.420988525390625,9.81535816192627,0.22133609652519226,-0.05144568532705307
1659103350756659500,9.430659423828125,9.80817985534668,0.22851456701755524,-0.05503492057323456
1659103350766330600,9.44033056640625,9.810572624206543,0.23330020904541016,-0.04307080805301666
1659103350776001500,9.45000146484375,9.811769485473633,0.22013968229293823,-0.04187439754605293
1659103350785672700,9.459672607421876,9.812965393066406,0.2309073805809021,-0.05383851006627083
1659103350795344000,9.46934375,9.80937671661377,0.24646073579788208,-0.038285162299871445
1659103350805014800,9.479014892578125,9.817750930786133,0.22372891008853912,-0.05383851006627083
1659103350814686000,9.48868603515625,9.80937671661377,0.2356930375099182,-0.04905286431312561
1659103350824356900,9.49835693359375,9.821340560913086,0.24287149310112,-0.04666004329919815
1659103350834028000,9.508028076171875,9.80817985534668,0.2309073805809021,-0.04905286431312561
1659103350843699000,9.517698974609376,9.818947792053223,0.2356930375099182,-0.05503492057323456
1659103350853370000,9.5273701171875,9.80937671661377,0.24287149310112,-0.04905286431312561
1659103350863041300,9.537041259765624,9.820143699645996,0.24047867953777313,-0.038285162299871445
1659103350872712200,9.546712158203125,9.803394317626953,0.23449662327766418,-0.062213387340307236
1659103350882383400,9.55638330078125,9.80817985534668,0.2309073805809021,-0.03469592705368996
1659103350892054500,9.566054443359375,9.80817985534668,0.2273181527853012,-0.05742774158716202
1659103350901725400,9.575725341796876,9.80817985534668,0.22851456701755524,-0.035892341285943985
1659103350911396600,9.585396728515626,9.80937671661377,0.22971096634864807,-0.058624155819416046
1659103350921067800,9.59506787109375,9.7998046875,0.2392822653055191,-0.04307080805301666
1659103350930738700,9.60473876953125,9.81655502319336,0.22851456701755524,-0.03349951654672623
1659103350940409900,9.614409912109375,9.80937671661377,0.2309073805809021,-0.040677983313798904
1659103350950081000,9.6240810546875,9.80817985534668,0.23688943684101105,-0.04187439754605293
1659103350959752000,9.633751953125,9.806983947753906,0.22013968229293823,-0.037088751792907715
1659103350969423000,9.643423095703126,9.811769485473633,0.2189432680606842,-0.039481572806835175
1659103350979094300,9.65309423828125,9.80100154876709,0.22971096634864807,-0.04785645380616188
1659103350988765200,9.66276513671875,9.806983947753906,0.22612173855304718,-0.05144568532705307
1659103350998436400,9.672436279296875,9.80100154876709,0.23688943684101105,-0.05024927482008934
1659103351008107500,9.682107421875,9.806983947753906,0.22133609652519226,-0.05024927482008934
1659103351017778400,9.6917783203125,9.820143699645996,0.2392822653055191,-0.040677983313798904
1659103351027449600,9.70144970703125,9.81535816192627,0.2309073805809021,-0.04666004329919815
1659103351037120500,9.71112060546875,9.81535816192627,0.24167509377002716,-0.039481572806835175
1659103351046791700,9.720791748046874,9.80817985534668,0.22013968229293823,-0.05503492057323456
1659103351056462600,9.730462646484375,9.805787086486816,0.22492532432079315,-0.05024927482008934
1659103351066133800,9.7401337890625,9.81655502319336,0.23330020904541016,-0.04546362906694412
1659103351075805000,9.749804931640625,9.811769485473633,0.2273181527853012,-0.059820566326379776
1659103351085475800,9.759475830078125,9.805787086486816,0.23330020904541016,-0.05623133108019829
1659103351095147000,9.76914697265625,9.810572624206543,0.22612173855304718,-0.05024927482008934
1659103351104818200,9.778818115234374,9.811769485473633,0.2356930375099182,-0.0526420995593071
1659103351114489000,9.788489013671875,9.811769485473633,0.23449662327766418,-0.04666004329919815
1659103351124160300,9.79816015625,9.81655502319336,0.24287149310112,-0.04905286431312561
1659103351133831400,9.80783154296875,9.812965393066406,0.22851456701755524,-0.05144568532705307
1659103351143502300,9.81750244140625,9.811769485473633,0.22612173855304718,-0.05024927482008934
1659103351153173500,9.827173583984376,9.82373332977295,0.22851456701755524,-0.06580262631177902
1659103351162844700,9.8368447265625,9.818947792053223,0.2356930375099182,-0.05742774158716202
1659103351172515600,9.846515625,9.804591178894043,0.2392822653055191,-0.061016976833343506
1659103351182186800,9.856186767578125,9.804591178894043,0.2189432680606842,-0.062213387340307236
1659103351191858000,9.86585791015625,9.811769485473633,0.24646073579788208,-0.05144568532705307
1659103351201528800,9.87552880859375,9.795019149780273,0.24646073579788208,-0.04905286431312561
1659103351211200000,9.885199951171876,9.804591178894043,0.23688943684101105,-0.058624155819416046
1659103351220871200,9.89487109375,9.826126098632812,0.22492532432079315,-0.058624155819416046
1659103351230542000,9.9045419921875,9.826126098632812,0.22492532432079315,-0.05144568532705307
1659103351240213200,9.914213134765625,9.80817985534668,0.24406790733337402,-0.05024927482008934
1659103351249884200,9.92388427734375,9.7998046875,0.2225325107574463,-0.039481572806835175
1659103351259555300,9.933555419921875,9.80219841003418,0.24047867953777313,-0.038285162299871445
1659103351269226200,9.943226318359375,9.82373332977295,0.2273181527853012,-0.04546362906694412
1659103351278897400,9.9528974609375,9.814162254333496,0.23449662327766418,-0.05024927482008934
1659103351288568600,9.962568603515624,9.805787086486816,0.22492532432079315,-0.04666004329919815
1659103351298239500,9.972239501953124,9.80817985534668,0.23688943684101105,-0.04666004329919815
1659103351307910700,9.98191064453125,9.80219841003418,0.24047867953777313,-0.05383851006627083
1659103351317581800,9.991581787109375,9.810572624206543,0.22372891008853912,-0.058624155819416046
1659103351327252700,10.001252685546875,9.812965393066406,0.24287149310112,-0.0526420995593071
1659103351336924000,10.010923828125,9.80219841003418,0.2392822653055191,-0.06580262631177902
1659103351346595000,10.020594970703126,9.817750930786133,0.22372891008853912,-0.038285162299871445
1659103351356266000,10.030265869140624,9.812965393066406,0.22013968229293823,-0.04307080805301666
1659103351365937200,10.039937255859375,9.810572624206543,0.22971096634864807,-0.04426721855998039
1659103351375608300,10.0496083984375,9.81535816192627,0.21655045449733734,-0.03469592705368996
1659103351385279200,10.059279296875,9.806983947753906,0.20458634197711945,-0.04546362906694412
1659103351394950400,10.068950439453126,9.810572624206543,0.22971096634864807,-0.035892341285943985
1659103351404621600,10.07862158203125,9.810572624206543,0.2225325107574463,-0.05503492057323456
1659103351414292500,10.08829248046875,9.81535816192627,0.24646073579788208,-0.039481572806835175
1659103351423963600,10.097963623046875,9.80937671661377,0.25722843408584595,-0.058624155819416046
1659103351433634800,10.107634765625,9.80219841003418,0.24646073579788208,-0.05144568532705307
1659103351443305700,10.1173056640625,9.811769485473633,0.26560330390930176,-0.040677983313798904
1659103351452977000,10.126976806640625,9.805787086486816,0.2679961323738098,-0.062213387340307236
1659103351462647800,10.136647705078126,9.810572624206543,0.25363919138908386,-0.07178468257188797
1659103351472319000,10.146319091796874,9.814162254333496,0.24526432156562805,-0.061016976833343506
1659103351481990000,10.155989990234374,9.80937671661377,0.2153540402650833,-0.06819544732570648
1659103351491661000,10.1656611328125,9.80219841003418,0.21415762603282928,-0.05503492057323456
1659103351501332200,10.175332275390625,9.798608779907227,0.20099709928035736,-0.05144568532705307
1659103351511003100,10.185003173828125,9.80817985534668,0.20458634197711945,-0.04426721855998039
1659103351520674300,10.19467431640625,9.80817985534668,0.20817556977272034,-0.035892341285943985
1659103351530345500,10.204345458984376,9.80937671661377,0.20578274130821228,-0.037088751792907715
1659103351540016400,10.214016357421874,9.81535816192627,0.2225325107574463,-0.04666004329919815
1659103351549687600,10.2236875,9.817750930786133,0.21655045449733734,-0.04426721855998039
1659103351559358700,10.233358642578125,9.80817985534668,0.24047867953777313,-0.06939185410737991
1659103351569029600,10.243029541015625,9.80817985534668,0.2476571500301361,-0.04785645380616188
1659103351578700800,10.25270068359375,9.80937671661377,0.24885354936122894,-0.04307080805301666
1659103351588372000,10.2623720703125,9.811769485473633,0.25722843408584595,-0.04905286431312561
1659103351598043000,10.27204296875,9.80100154876709,0.25363919138908386,-0.05024927482008934
1659103351607714000,10.281714111328125,9.80100154876709,0.2512463629245758,-0.07537391036748886
1659103351617385200,10.29138525390625,9.80937671661377,0.22612173855304718,-0.04187439754605293
1659103351627056000,10.30105615234375,9.80937671661377,0.2273181527853012,-0.059820566326379776
1659103351636727300,10.310727294921875,9.814162254333496,0.22851456701755524,-0.05623133108019829
1659103351646398500,10.3203984375,9.80817985534668,0.22013968229293823,-0.06340979784727097
1659103351656069400,10.3300693359375,9.80817985534668,0.22133609652519226,-0.04905286431312561
1659103351665740500,10.339740478515624,9.805787086486816,0.21296121180057526,-0.05623133108019829
1659103351675411500,10.349411376953125,9.804591178894043,0.23688943684101105,-0.035892341285943985
1659103351685082600,10.35908251953125,9.820143699645996,0.2105683982372284,-0.035892341285943985
1659103351694753800,10.36875390625,9.817750930786133,0.2309073805809021,-0.04666004329919815
1659103351704424700,10.3784248046875,9.811769485473633,0.2309073805809021,-0.0526420995593071
1659103351714095900,10.388095947265626,9.811769485473633,0.2356930375099182,-0.040677983313798904
1659103351723767000,10.39776708984375,9.80219841003418,0.24526432156562805,-0.05383851006627083
1659103351733438000,10.40743798828125,9.814162254333496,0.25004997849464417,-0.05144568532705307
1659103351743109000,10.417109130859375,9.80817985534668,0.2560320198535919,-0.058624155819416046
1659103351752780300,10.4267802734375,9.811769485473633,0.24287149310112,-0.06580262631177902
1659103351762451200,10.436451171875,9.812965393066406,0.2476571500301361,-0.05503492057323456
1659103351772122400,10.446122314453126,9.804591178894043,0.22492532432079315,-0.059820566326379776
1659103351781793500,10.45579345703125,9.80817985534668,0.2021935135126114,-0.05623133108019829
1659103351791464700,10.465464599609374,9.81535816192627,0.22133609652519226,-0.0526420995593071
1659103351801135600,10.475135498046875,9.818947792053223,0.2225325107574463,-0.05144568532705307
1659103351810806800,10.484806884765625,9.80937671661377,0.2105683982372284,-0.06580262631177902
1659103351820477700,10.494477783203125,9.80219841003418,0.21296121180057526,-0.05383851006627083
1659103351830148900,10.50414892578125,9.818947792053223,0.21655045449733734,-0.03469592705368996
1659103351839819800,10.51381982421875,9.80817985534668,0.23688943684101105,-0.04905286431312561
1659103351849491000,10.523490966796874,9.80219841003418,0.23330020904541016,-0.061016976833343506
1659103351859162000,10.533162109375,9.80817985534668,0.23688943684101105,-0.04666004329919815
1659103351868833000,10.5428330078125,9.814162254333496,0.22492532432079315,-0.05144568532705307
1659103351878504200,10.552504150390625,9.80817985534668,0.2584248483181,-0.061016976833343506
1659103351888175400,10.56217529296875,9.805787086486816,0.26201409101486206,-0.0526420995593071
1659103351897846300,10.57184619140625,9.826126098632812,0.25363919138908386,-0.0526420995593071
1659103351907517400,10.581517333984374,9.804591178894043,0.23688943684101105,-0.05024927482008934
1659103351917188600,10.591188720703125,9.80219841003418,0.22971096634864807,-0.05024927482008934
1659103351926859800,10.60085986328125,9.7998046875,0.22971096634864807,-0.05742774158716202
1659103351936530700,10.61053076171875,9.805787086486816,0.22133609652519226,-0.06340979784727097
1659103351946201900,10.620201904296875,9.803394317626953,0.21415762603282928,-0.05623133108019829
1659103351955873000,10.629873046875,9.810572624206543,0.20937198400497437,-0.0526420995593071
1659103351965544000,10.6395439453125,9.80219841003418,0.21655045449733734,-0.04785645380616188
1659103351975215000,10.649215087890624,9.810572624206543,0.2153540402650833,-0.03469592705368996
1659103351984886300,10.65888623046875,9.81655502319336,0.22013968229293823,-0.04785645380616188
1659103351994557200,10.66855712890625,9.814162254333496,0.2356930375099182,-0.04546362906694412
1659103352004228400,10.678228271484375,9.806983947753906,0.23688943684101105,-0.04666004329919815
1659103352013899300,10.687899169921875,9.812965393066406,0.24646073579788208,-0.05623133108019829
1659103352023570400,10.6975703125,9.81535816192627,0.24406790733337402,-0.04426721855998039
1659103352033241600,10.70724169921875,9.805787086486816,0.2356930375099182,-0.040677983313798904
1659103352042912500,10.71691259765625,9.803394317626953,0.24526432156562805,-0.061016976833343506
1659103352052583700,10.726583740234375,9.80937671661377,0.24526432156562805,-0.04546362906694412
1659103352062254800,10.7362548828125,9.812965393066406,0.2356930375099182,-0.059820566326379776
1659103352071925800,10.74592578125,9.804591178894043,0.23330020904541016,-0.06340979784727097
1659103352081597000,10.755596923828126,9.80937671661377,0.22612173855304718,-0.059820566326379776
1659103352091268000,10.76526806640625,9.810572624206543,0.21655045449733734,-0.031106693670153618
1659103352100939000,10.77493896484375,9.812965393066406,0.21774685382843018,-0.05024927482008934
1659103352110610200,10.784610107421875,9.811769485473633,0.22372891008853912,-0.03349951654672623
1659103352120281300,10.79428125,9.814162254333496,0.2309073805809021,-0.05503492057323456
1659103352129952300,10.8039521484375,9.803394317626953,0.21774685382843018,-0.039481572806835175
1659103352139623400,10.81362353515625,9.806983947753906,0.21655045449733734,-0.05144568532705307
1659103352149294600,10.823294677734374,9.817750930786133,0.23688943684101105,-0.05144568532705307
1659103352158965500,10.832965576171874,9.804591178894043,0.2273181527853012,-0.039481572806835175
1659103352168636700,10.84263671875,9.814162254333496,0.2356930375099182,-0.0526420995593071
1659103352178307800,10.852307861328125,9.810572624206543,0.2392822653055191,-0.059820566326379776
1659103352187978800,10.861978759765625,9.80817985534668,0.24287149310112,-0.05623133108019829
1659103352197650000,10.87164990234375,9.817750930786133,0.2309073805809021,-0.04785645380616188
1659103352207320800,10.88132080078125,9.81655502319336,0.2392822653055191,-0.05144568532705307
1659103352216992000,10.890991943359374,9.811769485473633,0.22971096634864807,-0.04785645380616188
1659103352226663200,10.9006630859375,9.804591178894043,0.22492532432079315,-0.06699903309345245
1659103352236334000,10.910333984375,9.804591178894043,0.2225325107574463,-0.05623133108019829
1659103352246005200,10.920005126953125,9.806983947753906,0.2069791555404663,-0.058624155819416046
1659103352255676400,10.929676513671875,9.80219841003418,0.22372891008853912,-0.05144568532705307
1659103352265347300,10.939347412109376,9.80817985534668,0.22971096634864807,-0.061016976833343506
1659103352275018500,10.9490185546875,9.814162254333496,0.2225325107574463,-0.058624155819416046
1659103352284689700,10.958689697265624,9.812965393066406,0.2273181527853012,-0.064606212079525
1659103352294360800,10.96836083984375,9.7998046875,0.23210379481315613,-0.035892341285943985
1659103352304031700,10.97803173828125,9.803394317626953,0.23210379481315613,-0.062213387340307236
1659103352313703000,10.987702880859375,9.814162254333496,0.24406790733337402,-0.04905286431312561
1659103352323374000,10.9973740234375,9.804591178894043,0.23688943684101105,-0.05503492057323456
1659103352333045000,11.007044921875,9.80100154876709,0.2476571500301361,-0.040677983313798904
1659103352342716200,11.016716064453124,9.7998046875,0.23330020904541016,-0.05503492057323456
1659103352352387000,11.026386962890625,9.81655502319336,0.23330020904541016,-0.04546362906694412
1659103352362058200,11.036058349609375,9.81535816192627,0.24406790733337402,-0.05024927482008934
1659103352371729400,11.0457294921875,9.80817985534668,0.22372891008853912,-0.05742774158716202
1659103352381400300,11.055400390625,9.811769485473633,0.21655045449733734,-0.05024927482008934
1659103352391071500,11.065071533203126,9.80100154876709,0.23210379481315613,-0.04905286431312561
1659103352400742700,11.07474267578125,9.805787086486816,0.2309073805809021,-0.05742774158716202
1659103352410413600,11.08441357421875,9.798608779907227,0.2153540402650833,-0.05144568532705307
1659103352420084700,11.094084716796875,9.80100154876709,0.22851456701755524,-0.0526420995593071
1659103352429756000,11.103755859375,9.804591178894043,0.24646073579788208,-0.05383851006627083
1659103352439426800,11.1134267578125,9.810572624206543,0.2476571500301361,-0.04666004329919815
1659103352449098000,11.123097900390626,9.804591178894043,0.24047867953777313,-0.04426721855998039
1659103352458769200,11.13276904296875,9.80937671661377,0.24167509377002716,-0.059820566326379776
1659103352468440000,11.142440185546874,9.80817985534668,0.2309073805809021,-0.038285162299871445
1659103352478111200,11.152111328125,9.811769485473633,0.24167509377002716,-0.05144568532705307
1659103352487782400,11.161782470703125,9.80100154876709,0.24047867953777313,-0.058624155819416046
1659103352497453600,11.17145361328125,9.810572624206543,0.23808585107326508,-0.064606212079525
1659103352507124500,11.18112451171875,9.795019149780273,0.24167509377002716,-0.04905286431312561
1659103352516795600,11.190795654296876,9.804591178894043,0.22851456701755524,-0.04426721855998039
1659103352526466600,11.200466552734374,9.80100154876709,0.2225325107574463,-0.05623133108019829
1659103352536137700,11.2101376953125,9.805787086486816,0.2392822653055191,-0.05742774158716202
1659103352545809000,11.219808837890625,9.804591178894043,0.22851456701755524,-0.03469592705368996
1659103352555479800,11.229479736328125,9.814162254333496,0.22971096634864807,-0.04785645380616188
1659103352565151000,11.23915087890625,9.812965393066406,0.22372891008853912,-0.058624155819416046
1659103352574822100,11.248822265625,9.80817985534668,0.22971096634864807,-0.05024927482008934
1659103352584493000,11.2584931640625,9.811769485473633,0.2512463629245758,-0.04187439754605293
1659103352594164200,11.268164306640625,9.81535816192627,0.2273181527853012,-0.04666004329919815
1659103352603835400,11.27783544921875,9.804591178894043,0.22971096634864807,-0.05383851006627083
1659103352613506300,11.28750634765625,9.806983947753906,0.24885354936122894,-0.04546362906694412
1659103352623177500,11.297177490234375,9.80219841003418,0.24526432156562805,-0.0526420995593071
1659103352632848600,11.3068486328125,9.80937671661377,0.23330020904541016,-0.058624155819416046
1659103352642519800,11.316519775390624,9.805787086486816,0.23449662327766418,-0.04426721855998039
1659103352652190700,11.326190673828124,9.812965393066406,0.23449662327766418,-0.04905286431312561
1659103352661862000,11.33586181640625,9.81535816192627,0.2356930375099182,-0.04426721855998039
1659103352671532800,11.34553271484375,9.805787086486816,0.23688943684101105,-0.04666004329919815
1659103352681204000,11.355203857421875,9.804591178894043,0.22612173855304718,-0.064606212079525
1659103352690875000,11.364875,9.80100154876709,0.21176479756832123,-0.04307080805301666
1659103352700546000,11.374546142578126,9.806983947753906,0.22013968229293823,-0.05383851006627083
1659103352710217200,11.38421728515625,9.80817985534668,0.22013968229293823,-0.04307080805301666
1659103352719888400,11.393888427734375,9.80937671661377,0.2273181527853012,-0.06340979784727097
1659103352729559300,11.403559326171875,9.80937671661377,0.23210379481315613,-0.037088751792907715
1659103352739230500,11.41323046875,9.811769485473633,0.2392822653055191,-0.062213387340307236
1659103352748901600,11.422901611328125,9.7998046875,0.24167509377002716,-0.04307080805301666
1659103352758572500,11.432572509765626,9.797411918640137,0.2309073805809021,-0.04785645380616188
1659103352768243700,11.44224365234375,9.80219841003418,0.2273181527853012,-0.05742774158716202
1659103352777915000,11.451914794921874,9.805787086486816,0.24167509377002716,-0.04307080805301666
1659103352787586000,11.4615859375,9.80817985534668,0.24047867953777313,-0.05144568532705307
1659103352797257000,11.471257080078125,9.80937671661377,0.23210379481315613,-0.05144568532705307
1659103352806928100,11.48092822265625,9.804591178894043,0.22971096634864807,-0.05742774158716202
1659103352816599300,11.490599365234376,9.80937671661377,0.2225325107574463,-0.04785645380616188
1659103352826270200,11.500270263671876,9.80937671661377,0.2309073805809021,-0.062213387340307236
1659103352835941400,11.50994140625,9.80817985534668,0.21774685382843018,-0.06340979784727097
1659103352845612300,11.5196123046875,9.81655502319336,0.21774685382843018,-0.06939185410737991
1659103352855283500,11.529283447265625,9.806983947753906,0.2309073805809021,-0.058624155819416046
1659103352864954600,11.53895458984375,9.805787086486816,0.22372891008853912,-0.059820566326379776
1659103352874625500,11.54862548828125,9.810572624206543,0.2356930375099182,-0.0323031060397625
1659103352884296700,11.558296630859376,9.810572624206543,0.23330020904541016,-0.05144568532705307
1659103352893968000,11.5679677734375,9.80937671661377,0.23330020904541016,-0.059820566326379776
1659103352903638800,11.577638671875,9.80817985534668,0.24885354936122894,-0.04426721855998039
1659103352913310000,11.58731005859375,9.7998046875,0.23808585107326508,-0.04785645380616188
1659103352922981000,11.596981201171875,9.80100154876709,0.23449662327766418,-0.04426721855998039
1659103352932652000,11.606652099609375,9.80100154876709,0.22851456701755524,-0.04785645380616188
1659103352942323200,11.6163232421875,9.798608779907227,0.24047867953777313,-0.05742774158716202
1659103352951994400,11.625994384765624,9.80937671661377,0.22133609652519226,-0.05024927482008934
1659103352961665500,11.63566552734375,9.805787086486816,0.23808585107326508,-0.04187439754605293
1659103352971336400,11.64533642578125,9.80937671661377,0.2273181527853012,-0.04307080805301666
1659103352981007600,11.655007568359375,9.804591178894043,0.23808585107326508,-0.04307080805301666
1659103352990678500,11.664678466796875,9.810572624206543,0.22851456701755524,-0.04546362906694412
1659103353000349700,11.674349609375,9.80817985534668,0.2309073805809021,-0.062213387340307236
1659103353010020900,11.684020751953126,9.80219841003418,0.2273181527853012,-0.05383851006627083
1659103353019691800,11.69369189453125,9.811769485473633,0.23210379481315613,-0.05383851006627083
1659103353029363000,11.703363037109375,9.811769485473633,0.22133609652519226,-0.05024927482008934
1659103353039034000,11.7130341796875,9.80100154876709,0.23330020904541016,-0.0526420995593071
1659103353048705000,11.722705078125,9.811769485473633,0.23449662327766418,-0.05742774158716202
1659103353058376200,11.732376220703125,9.81655502319336,0.22971096634864807,-0.05383851006627083
1659103353068047400,11.74204736328125,9.806983947753906,0.22612173855304718,-0.04426721855998039
1659103353077718500,11.751718505859374,9.806983947753906,0.23688943684101105,-0.04187439754605293
1659103353087389400,11.761389404296875,9.80817985534668,0.23449662327766418,-0.05503492057323456
1659103353097060600,11.771060546875,9.817750930786133,0.2309073805809021,-0.04785645380616188
1659103353106731800,11.780731689453125,9.814162254333496,0.23210379481315613,-0.03349951654672623
1659103353116402700,11.790402587890625,9.80937671661377,0.2356930375099182,-0.05024927482008934
1659103353126073900,11.800073974609376,9.80937671661377,0.2273181527853012,-0.05503492057323456
1659103353135745000,11.8097451171875,9.811769485473633,0.2356930375099182,-0.0526420995593071
1659103353145416000,11.819416015625,9.80817985534668,0.24526432156562805,-0.05742774158716202
1659103353155087000,11.829087158203125,9.811769485473633,0.24047867953777313,-0.04187439754605293
1659103353164758000,11.838758056640625,9.811769485473633,0.2392822653055191,-0.04307080805301666
1659103353174429200,11.84842919921875,9.817750930786133,0.22971096634864807,-0.04546362906694412
1659103353184100400,11.858100341796876,9.806983947753906,0.23808585107326508,-0.05383851006627083
1659103353193771300,11.867771240234376,9.804591178894043,0.22971096634864807,-0.0526420995593071
1659103353203442400,11.8774423828125,9.811769485473633,0.2356930375099182,-0.04426721855998039
1659103353213113600,11.887113525390625,9.805787086486816,0.23210379481315613,-0.038285162299871445
1659103353222784800,11.89678466796875,9.80817985534668,0.22492532432079315,-0.0526420995593071
1659103353232455700,11.90645556640625,9.80817985534668,0.22612173855304718,-0.06340979784727097
1659103353242126800,11.916126953125,9.80937671661377,0.23210379481315613,-0.058624155819416046
1659103353251798000,11.925798095703126,9.805787086486816,0.23330020904541016,-0.05623133108019829
1659103353261469000,11.935468994140624,9.7998046875,0.23688943684101105,-0.04785645380616188
1659103353271140000,11.94514013671875,9.811769485473633,0.2309073805809021,-0.05144568532705307
1659103353280811300,11.954811279296875,9.80219841003418,0.2309073805809021,-0.039481572806835175
1659103353290482200,11.964482177734375,9.80100154876709,0.22612173855304718,-0.058624155819416046
1659103353300153300,11.9741533203125,9.805787086486816,0.23688943684101105,-0.040677983313798904
1659103353309824300,11.98382421875,9.81655502319336,0.2392822653055191,-0.04426721855998039
1659103353319495400,11.993495361328126,9.806983947753906,0.22971096634864807,-0.05383851006627083
1659103353329166600,12.00316650390625,9.80817985534668,0.2273181527853012,-0.04546362906694412
1659103353338837800,12.012837646484375,9.812965393066406,0.24287149310112,-0.04426721855998039
1659103353348508700,12.0225087890625,9.817750930786133,0.24287149310112,-0.05503492057323456
1659103353358179800,12.032179931640625,9.80100154876709,0.2273181527853012,-0.05742774158716202
1659103353367851000,12.04185107421875,9.806983947753906,0.22971096634864807,-0.064606212079525
1659103353377522000,12.05152197265625,9.803394317626953,0.2225325107574463,-0.05144568532705307
1659103353387193000,12.061193115234374,9.80219841003418,0.2273181527853012,-0.05503492057323456
1659103353396864300,12.0708642578125,9.81655502319336,0.23688943684101105,-0.04426721855998039
1659103353406535400,12.080535400390625,9.7998046875,0.22851456701755524,-0.04905286431312561
1659103353416206300,12.090206298828125,9.805787086486816,0.22133609652519226,-0.062213387340307236
1659103353425877500,12.09987744140625,9.810572624206543,0.22971096634864807,-0.05383851006627083
1659103353435548700,12.109548583984376,9.80219841003418,0.23808585107326508,-0.04666004329919815
1659103353445219600,12.119219482421874,9.81535816192627,0.2392822653055191,-0.04785645380616188
1659103353454890800,12.128890869140625,9.810572624206543,0.22133609652519226,-0.059820566326379776
1659103353464561700,12.138561767578125,9.803394317626953,0.22971096634864807,-0.05024927482008934
1659103353474232800,12.14823291015625,9.810572624206543,0.23688943684101105,-0.04785645380616188
1659103353483904000,12.157904052734375,9.80100154876709,0.22851456701755524,-0.04546362906694412
1659103353493575000,12.167574951171876,9.820143699645996,0.24406790733337402,-0.04785645380616188
1659103353503246000,12.17724609375,9.805787086486816,0.23688943684101105,-0.05623133108019829
1659103353512917200,12.186917236328124,9.810572624206543,0.2225325107574463,-0.04187439754605293
1659103353522588400,12.19658837890625,9.804591178894043,0.2225325107574463,-0.05503492057323456
1659103353532259300,12.20625927734375,9.80817985534668,0.24047867953777313,-0.04666004329919815
1659103353541930500,12.215930419921875,9.804591178894043,0.22971096634864807,-0.05024927482008934
1659103353551601700,12.2256015625,9.818947792053223,0.2356930375099182,-0.05144568532705307
1659103353561272600,12.2352724609375,9.806983947753906,0.2309073805809021,-0.06819544732570648
