time,seconds_elapsed,z,y,x
1659029066692888000,0.04288818359375,0,0,0
1659029066702558000,0.052557861328125,0.17346572875976562,-0.03446361422538757,-0.010812751948833466
1659029066712227600,0.0622275390625,0.01836872100830078,-0.048252254724502563,0.022021427750587463
1659029066721897500,0.0718974609375,-0.25541114807128906,-0.025527000427246094,0.04567602276802063
1659029066731567400,0.0815673828125,-0.20720291137695312,-0.005647093057632446,-0.007164016366004944
1659029066741237200,0.0912373046875,-0.05305004119873047,0.021105587482452393,-0.02838066965341568
1659029066750907000,0.100906982421875,-0.0055141448974609375,0.0014179348945617676,0.013320326805114746
1659029066760576800,0.11057666015625,0.08103179931640625,-0.0413210391998291,0.01425229012966156
1659029066770246700,0.12024658203125,0.014627456665039062,-0.028838902711868286,0.021891430020332336
1659029066779916300,0.129916259765625,-0.08913707733154297,0.005293995141983032,-0.004570484161376953
1659029066789586200,0.139586181640625,-0.0788736343383789,0.02053147554397583,-0.021523356437683105
1659029066799256000,0.149256103515625,-0.06135749816894531,-0.0031243562698364258,-0.0007113218307495117
1659029066808925700,0.15892578125,-0.0014257431030273438,-0.02117246389389038,0.026424825191497803
1659029066818595600,0.168595703125,0.05534934997558594,-0.013858318328857422,0.008703738451004028
1659029066828265500,0.178265380859375,0.0036439895629882812,-0.005832314491271973,-0.006064057350158691
1659029066837935000,0.18793505859375,-0.07287025451660156,0.01134607195854187,-0.008062005043029785
1659029066847605000,0.19760498046875,-0.06746959686279297,-0.00808495283126831,0.008170843124389648
1659029066857275000,0.20727490234375,-0.02870464324951172,-0.00567963719367981,0.010208696126937866
1659029066866944800,0.21694482421875,0.04987907409667969,0.00009149312973022461,0.008917391300201416
1659029066876614400,0.226614501953125,0.03147315979003906,0.0018523931503295898,-0.005244463682174683
1659029066886284300,0.2362841796875,-0.03954315185546875,-0.004661917686462402,-0.013113677501678467
1659029066895954000,0.245953857421875,-0.17023563385009766,-0.03032320737838745,0.031241893768310547
1659029066905623800,0.255623779296875,-0.6308708190917969,-0.08758920431137085,0.13486605882644653
1659029066915293700,0.265293701171875,-0.5184450149536133,-0.02704206109046936,0.109782874584198
1659029066924963600,0.274963623046875,-0.01512908935546875,0.011841952800750732,-0.02886602282524109
1659029066934633200,0.28463330078125,0.4467926025390625,0.08313062787055969,-0.07882164418697357
1659029066944303000,0.29430322265625,1.0120429992675781,0.037130534648895264,-0.07210066169500351
1659029066953973000,0.303972900390625,0.4705772399902344,0.029187053442001343,0.0038365349173545837
1659029066963642600,0.313642578125,-0.2722129821777344,-0.030921369791030884,0.010467931628227234
1659029066973312500,0.3233125,-0.5302600860595703,-0.03622409701347351,0.012162994593381882
1659029066982982400,0.332982421875,-0.1507577896118164,-0.0015910565853118896,-0.03727009892463684
1659029066992652000,0.342652099609375,0.24451351165771484,0.03782513737678528,-0.030980756506323814
1659029067002322000,0.352322021484375,0.42853355407714844,-0.0006996393203735352,-0.012989547103643417
1659029067011991800,0.36199169921875,-0.20878124237060547,-0.03210872411727905,0.006255403161048889
1659029067021661400,0.371661376953125,-0.20401954650878906,0.019850194454193115,-0.005947738885879517
1659029067031331300,0.381331298828125,0.030712127685546875,0.034845709800720215,-0.03837449848651886
1659029067041001200,0.391001220703125,0.20783329010009766,0.04007074236869812,-0.0051694028079509735
1659029067050671000,0.400671142578125,0.3315706253051758,0.022437363862991333,-0.010543111711740494
1659029067060340700,0.4103408203125,0.1435079574584961,-0.013857036828994751,-0.029196113348007202
1659029067070010600,0.4200107421875,0.015025138854980469,0.04763290286064148,-0.012880101799964905
1659029067079680300,0.42968017578125,-0.17215633392333984,0.015303969383239746,-0.015610694885253906
1659029067089350100,0.43935009765625,-0.3058938980102539,-0.010876655578613281,0.05808446556329727
1659029067099020000,0.44902001953125,-0.22634506225585938,-0.016364455223083496,0.01832258701324463
1659029067108690000,0.45868994140625,-0.19897747039794922,0.02659723162651062,-0.06834730505943298
1659029067118359600,0.468359619140625,-0.052977561950683594,-0.11903300881385803,0.017609134316444397
1659029067128029400,0.478029541015625,0.014890670776367188,0.03303486108779907,-0.04231100529432297
1659029067137699300,0.48769921875,0.10232162475585938,-0.0022962093353271484,0.008541837334632874
1659029067147369000,0.497368896484375,0.719904899597168,0.10349655151367188,-0.16833186149597168
1659029067157038800,0.507038818359375,-0.42580604553222656,-0.04947969317436218,0.11951101571321487
1659029067166708700,0.516708740234375,-0.4067068099975586,-0.10186749696731567,0.03619471937417984
1659029067176378600,0.526378662109375,-0.42448902130126953,-0.06422162055969238,0.06255394220352173
1659029067186048300,0.53604833984375,-0.10649299621582031,0.013682454824447632,0.026038192212581635
1659029067195718100,0.54571826171875,0.056362152099609375,0.023247957229614258,-0.016926199197769165
1659029067205387800,0.5553876953125,0.1962718963623047,0.008494764566421509,-0.030621524900197983
1659029067215057700,0.5650576171875,0.23621368408203125,0.0004521012306213379,0.008396990597248077
1659029067224727600,0.5747275390625,0.23674583435058594,0.003554433584213257,-0.028366999700665474
1659029067234397400,0.5843974609375,0.004570960998535156,-0.008574962615966797,0.007469926029443741
1659029067244067000,0.594067138671875,-0.015498161315917969,0.016490906476974487,-0.013762500137090683
1659029067253737000,0.603737060546875,-0.141082763671875,-0.011096835136413574,0.019123610109090805
1659029067263406800,0.61340673828125,-0.018721580505371094,-0.012629836797714233,0.015083219856023788
1659029067273076500,0.623076416015625,0.13806629180908203,0.002788364887237549,-0.018680181354284286
1659029067282746400,0.632746337890625,0.012238502502441406,0.0061852335929870605,-0.009769704192876816
1659029067292416000,0.642416015625,-0.046784400939941406,0.011679261922836304,-0.0016138255596160889
1659029067302086000,0.6520859375,-0.0953836441040039,0.004351139068603516,0.0074156709015369415
1659029067311755800,0.661755859375,-0.10315704345703125,0.007166475057601929,0.004620403051376343
1659029067321425700,0.67142578125,0.09857559204101562,0.02667766809463501,-0.016503633931279182
1659029067331095300,0.68109521484375,0.1298818588256836,0.0013558268547058105,0.029138904064893723
1659029067340765200,0.69076513671875,-0.07696533203125,0.005184799432754517,0.025971634313464165
1659029067350435000,0.70043505859375,-0.016837120056152344,0.012622058391571045,0.005727749317884445
1659029067360104700,0.710104736328125,0.015215873718261719,0.10159578919410706,-0.04955674707889557
1659029067369774600,0.719774658203125,0.030277252197265625,0.5039856433868408,-0.01677900180220604
1659029067379444500,0.729444580078125,-0.01842784881591797,1.020396113395691,-0.1177859827876091
1659029067389114000,0.739114013671875,-0.1887216567993164,1.0059317350387573,-0.466857373714447
1659029067398784000,0.748783935546875,-0.026788711547851562,0.6078558564186096,-0.615134060382843
1659029067408454000,0.758453857421875,0.18540477752685547,0.9853315353393555,0.005423054099082947
1659029067418123500,0.76812353515625,-0.08000659942626953,0.09991195797920227,0.2945464551448822
1659029067427793400,0.77779345703125,-0.06806087493896484,0.7118024826049805,0.17781423032283783
1659029067437463300,0.78746337890625,-0.021065711975097656,0.6393355131149292,0.07471613585948944
1659029067447133200,0.79713330078125,-0.028916358947753906,0.4902931749820709,0.13120949268341064
1659029067456802800,0.806802734375,0.0669546127319336,0.6435201168060303,-0.07191955298185349
1659029067466472700,0.81647265625,-0.06943321228027344,0.8216975927352905,-0.2908359467983246
1659029067476142600,0.826142578125,-0.05531501770019531,0.8429025411605835,-0.35252776741981506
1659029067485812200,0.835812255859375,-0.024982452392578125,0.947709858417511,-0.24902451038360596
1659029067495482000,0.845482177734375,-0.04103565216064453,0.7001231908798218,-0.13016429543495178
1659029067505151700,0.85515185546875,-0.07448482513427734,0.5193277597427368,-0.18450714647769928
1659029067514821600,0.864821533203125,0.13028621673583984,0.5542303323745728,0.026516061276197433
1659029067524491500,0.874491455078125,-0.0012884140014648438,0.34252601861953735,0.24874374270439148
1659029067534161400,0.884161376953125,-0.03533935546875,0.18072152137756348,0.4644933342933655
1659029067543831000,0.8938310546875,-0.05234813690185547,0.1850452423095703,0.4755593538284302
1659029067553501000,0.9035009765625,-0.11260986328125,0.12107527256011963,0.3386175036430359
1659029067563170800,0.9131708984375,0.014017105102539062,0.15698522329330444,0.08721425384283066
1659029067572840400,0.92284033203125,0.03026866912841797,0.3175499439239502,-0.05464966222643852
1659029067582510300,0.93251025390625,-0.15145111083984375,0.8293384909629822,-0.3303273916244507
1659029067592180000,0.942179931640625,0.11577606201171875,0.4685658812522888,-0.24492603540420532
1659029067601849900,0.951849853515625,0.07389163970947266,0.07881134748458862,-0.15249542891979218
1659029067611519700,0.961519775390625,-0.1590900421142578,0.06780052185058594,-0.058272525668144226
1659029067621189600,0.971189697265625,0.07881641387939453,-0.06438863277435303,-0.04217216372489929
1659029067630859300,0.980859375,0.16695404052734375,-0.5545374155044556,0.2944638729095459
1659029067640529200,0.990529052734375,0.10782337188720703,-0.2615009546279907,0.5369668006896973
1659029067650199000,1.000198974609375,-0.1539745330810547,-0.2759939134120941,0.4980114698410034
1659029067659868700,1.00986865234375,-0.07024860382080078,-0.27229663729667664,0.4475307762622833
1659029067669538600,1.01953857421875,0.03803825378417969,-0.16185331344604492,0.2664724290370941
1659029067679208400,1.02920849609375,0.16689300537109375,-0.04885643720626831,0.1863037496805191
1659029067688878000,1.038878173828125,-0.1099853515625,-0.10258257389068604,0.07255516946315765
1659029067698548000,1.0485478515625,-0.036376953125,-0.150400310754776,0.16441936790943146
1659029067708217900,1.0582177734375,-0.045195579528808594,0.16280871629714966,0.2689015567302704
1659029067717887500,1.067887451171875,0.06256389617919922,0.2481238842010498,0.04594200477004051
1659029067727555800,1.077555908203125,-0.035025596618652344,-0.007645905017852783,-0.0137702114880085
1659029067737225500,1.0872255859375,0.08088970184326172,-0.13295936584472656,0.13812492787837982
1659029067746895400,1.096895263671875,-0.04874610900878906,0.34882670640945435,-0.05301481485366821
1659029067756565200,1.106565185546875,-0.029128074645996094,0.05152922868728638,-0.1695680320262909
1659029067766235100,1.116235107421875,0.03722667694091797,0.08975327014923096,-0.15906766057014465
1659029067775904800,1.12590478515625,0.03544425964355469,0.21160787343978882,-0.10896296799182892
1659029067785574700,1.13557470703125,-0.009817123413085938,-0.21476221084594727,-0.16980120539665222
1659029067795244500,1.14524462890625,-0.0814208984375,0.11604982614517212,0.001939237117767334
1659029067804914200,1.1549140625,0.06938362121582031,0.09247219562530518,-0.0186961367726326
1659029067814584000,1.164583984375,0.047110557556152344,-0.14410695433616638,-0.04761544242501259
1659029067824253700,1.174253662109375,-0.10425090789794922,0.12403911352157593,-0.04649531468749046
1659029067833923600,1.183923583984375,0.025806427001953125,0.17843550443649292,-0.11200465261936188
1659029067843593500,1.193593505859375,0.0006895065307617188,-0.15533345937728882,0.07299204170703888
1659029067853263400,1.203263427734375,0.0737466812133789,-0.5263418555259705,-0.12335071712732315
1659029067862933000,1.21293310546875,-0.2522573471069336,0.05078321695327759,0.09249516576528549
1659029067872603000,1.222602783203125,-0.4739561080932617,-0.2919696271419525,-0.0853065699338913
1659029067882272800,1.232272705078125,-0.15194129943847656,-0.5534595847129822,-0.19538699090480804
1659029067891942400,1.2419423828125,0.3790016174316406,-0.33461081981658936,-0.2587847113609314
1659029067901612300,1.2516123046875,0.20333480834960938,-0.5054883360862732,-0.25955086946487427
1659029067911282000,1.261281982421875,-0.41661834716796875,-0.5493642091751099,0.12398592382669449
1659029067920951800,1.270951904296875,-0.5519866943359375,-0.4750266671180725,-0.1421733945608139
1659029067930621700,1.28062158203125,-0.10268878936767578,0.4166731834411621,-0.12213839590549469
1659029067940291600,1.29029150390625,-0.04699134826660156,0.1345694661140442,-0.22248761355876923
1659029067949961200,1.299961181640625,0.766535758972168,0.46478211879730225,-0.5530922412872314
1659029067959631000,1.309631103515625,0.40201377868652344,-0.023291051387786865,-0.36978739500045776
1659029067969301000,1.319301025390625,0.04700469970703125,-0.32875046133995056,-0.29563260078430176
1659029067978970600,1.328970703125,-0.23063373565673828,-0.6878156661987305,0.3819029927253723
1659029067988640500,1.338640625,0.031785011291503906,-0.005427837371826172,-0.4930078685283661
1659029067998310100,1.34831005859375,1.146657943725586,-0.11209052801132202,0.1185198724269867
1659029068007980000,1.35797998046875,-0.32178306579589844,-0.09099644422531128,0.08448570221662521
1659029068017650000,1.36764990234375,-0.21535778045654297,-0.0705949068069458,0.097455695271492
1659029068027319800,1.37731982421875,0.2528390884399414,-0.39674800634384155,0.6037845611572266
1659029068036989400,1.386989501953125,0.24764347076416016,-0.13293638825416565,0.34439966082572937
1659029068046659300,1.396659423828125,0.11652946472167969,-0.19714167714118958,0.28063446283340454
1659029068056329200,1.4063291015625,-0.2443094253540039,0.1691773533821106,0.1732633262872696
1659029068065998800,1.415998779296875,0.0668802261352539,0.05008476972579956,0.13835978507995605
1659029068075668700,1.425668701171875,0.04823493957519531,0.27052199840545654,-0.11448714882135391
1659029068085338400,1.43533837890625,-0.40081787109375,0.028881371021270752,-0.11134713888168335
1659029068095008300,1.44500830078125,0.14824295043945312,0.2495519518852234,0.36295467615127563
1659029068104678100,1.45467822265625,0.022302627563476562,0.22063428163528442,0.40466415882110596
1659029068114347800,1.46434765625,0.6067981719970703,0.01179271936416626,0.4059719443321228
1659029068124017700,1.474017578125,-0.9102859497070312,0.22873938083648682,-0.24876299500465393
1659029068133687600,1.4836875,-0.11867523193359375,0.7329854369163513,-0.04144008457660675
1659029068143357400,1.493357421875,0.15042781829833984,0.4214404821395874,-0.11450019478797913
1659029068153027000,1.503027099609375,0.4410409927368164,0.5627835392951965,-0.015666358172893524
1659029068162697000,1.512697021484375,-0.3628120422363281,-0.12137395143508911,-0.07056833803653717
1659029068172366600,1.52236669921875,0.07262706756591797,0.4413672685623169,0.39998161792755127
1659029068182036500,1.532036376953125,-0.19563007354736328,0.4715161919593811,-0.12243609130382538
1659029068191706400,1.541706298828125,0.6371641159057617,0.059164583683013916,-0.29052621126174927
1659029068201376000,1.5513759765625,-0.4030313491821289,0.5290037989616394,0.03493882715702057
1659029068211046000,1.5610458984375,-0.24479961395263672,-0.05275219678878784,0.05268365144729614
1659029068220715800,1.5707158203125,0.5487651824951172,0.09259718656539917,0.07348884642124176
1659029068230385700,1.5803857421875,-0.03683662414550781,-0.4901264011859894,0.11825697869062424
1659029068240055300,1.59005517578125,-0.7708044052124023,-0.11177891492843628,0.4269125163555145
1659029068249725200,1.59972509765625,0.5950765609741211,-0.11095398664474487,-0.06452187150716782
1659029068259394800,1.609394775390625,0.09792232513427734,-0.06942588090896606,-0.03280738741159439
1659029068269064700,1.619064697265625,-0.7027435302734375,-0.043062031269073486,-0.31203290820121765
1659029068278734600,1.628734619140625,0.597198486328125,-0.23680844902992249,-0.5918236374855042
1659029068288404200,1.638404296875,-0.07412528991699219,0.3477784991264343,-0.3733677864074707
1659029068298074000,1.64807421875,-0.3437318801879883,0.05588120222091675,-0.20398539304733276
1659029068307744000,1.657743896484375,0.07829093933105469,-0.0427778959274292,0.021843068301677704
1659029068317414000,1.667413818359375,0.1003561019897461,-0.06880044937133789,0.3392007648944855
1659029068327083500,1.67708349609375,-0.2731666564941406,0.13777846097946167,0.5336472392082214
1659029068336753400,1.68675341796875,-0.033371925354003906,-0.24551722407341003,0.1280287504196167
1659029068346423300,1.69642333984375,0.19422435760498047,-0.025026917457580566,0.033059678971767426
1659029068356093000,1.706093017578125,0.8676204681396484,0.13783007860183716,-0.047366492450237274
1659029068365762800,1.7157626953125,-0.3162202835083008,-0.09287106990814209,0.20435689389705658
1659029068375432400,1.725432373046875,-0.8862285614013672,-0.3278646469116211,0.20505976676940918
1659029068385102300,1.735102294921875,0.11687755584716797,-0.12365245819091797,0.32612884044647217
1659029068394772200,1.744772216796875,0.49378204345703125,-0.27247416973114014,0.04154384136199951
1659029068404441900,1.75444189453125,0.13977813720703125,-0.20657920837402344,0.35969293117523193
1659029068414111700,1.76411181640625,-0.5295686721801758,-0.18070924282073975,0.13209596276283264
1659029068423781600,1.77378173828125,0.1569080352783203,-0.36212801933288574,-0.35792261362075806
1659029068433451500,1.783451416015625,0.45317554473876953,-0.15641307830810547,-0.3271981179714203
1659029068443121200,1.79312109375,-0.4897584915161133,-0.10309946537017822,-0.671333372592926
1659029068452791000,1.802791015625,-0.14412689208984375,0.17557096481323242,-0.6154642105102539
1659029068462460700,1.812460693359375,-0.048996925354003906,0.3334575891494751,-0.45716413855552673
1659029068472130600,1.822130615234375,0.041088104248046875,0.02007955312728882,-0.2639341354370117
1659029068481800400,1.831800537109375,0.5086755752563477,-0.15369200706481934,0.04793885350227356
1659029068491470000,1.841469970703125,-0.04448509216308594,-0.3682680130004883,0.32561665773391724
1659029068501140000,1.851139892578125,-0.12731266021728516,-0.37787216901779175,0.5923438668251038
1659029068510809900,1.860809814453125,-0.028759002685546875,-0.24166277050971985,0.2535199522972107
1659029068520479700,1.870479736328125,-0.0671548843383789,0.1418582797050476,0.17439326643943787
1659029068530149400,1.8801494140625,-0.2731504440307617,-0.33248743414878845,0.14169558882713318
1659029068539819300,1.8898193359375,0.16537857055664062,0.25993645191192627,-0.07026240229606628
1659029068549489000,1.899489013671875,0.5850381851196289,0.24353700876235962,-0.6472823619842529
1659029068559158800,1.90915869140625,-0.19542503356933594,0.33358848094940186,-0.6640808582305908
1659029068568828700,1.91882861328125,0.08078193664550781,-0.09405624866485596,-0.38601216673851013
1659029068578498300,1.928498291015625,0.32195281982421875,-0.27343660593032837,0.21804045140743256
1659029068588168200,1.938168212890625,-0.1859283447265625,0.563559889793396,0.24323450028896332
1659029068597838000,1.947838134765625,-0.4216575622558594,-0.046783626079559326,0.45185577869415283
1659029068607507700,1.9575078125,0.027616500854492188,-0.2370157241821289,0.15026138722896576
1659029068617177600,1.967177490234375,0.8851337432861328,0.28639042377471924,0.007982052862644196
1659029068626847500,1.976847412109375,-0.47780895233154297,0.23415976762771606,-0.6536223292350769
1659029068636517000,1.98651708984375,0.16916370391845703,0.11552077531814575,-0.6033186316490173
1659029068646187000,1.99618701171875,0.0888223648071289,0.1769881248474121,-0.4076507091522217
1659029068655857000,2.00585693359375,-0.49503421783447266,0.20628827810287476,-0.15268808603286743
1659029068665526500,2.015526611328125,0.036810874938964844,-0.05444592237472534,0.07132430374622345
1659029068675196400,2.025196533203125,0.5871210098266602,-0.11974802613258362,0.528222918510437
1659029068684866300,2.0348662109375,0.10233402252197266,-0.1915346086025238,0.5991013646125793
1659029068694536000,2.044535888671875,-0.8360042572021484,-0.0408400297164917,0.3039926290512085
1659029068704205800,2.054205810546875,-0.037413597106933594,-0.3835696578025818,0.2030314952135086
1659029068713875500,2.06387548828125,0.5351638793945312,0.2188323736190796,0.43837204575538635
1659029068723545300,2.07354541015625,-0.05838298797607422,-0.08512380719184875,0.3480411469936371
1659029068733215200,2.08321533203125,-0.21013355255126953,0.2162143588066101,-0.1472199410200119
1659029068742885000,2.092885009765625,0.630681037902832,0.3355594277381897,-0.9138966798782349
1659029068752554800,2.1025546875,-2.7122750282287598,-0.014125525951385498,0.50911545753479
1659029068762224600,2.112224609375,1.304978370666504,-0.5322045087814331,0.351629376411438
1659029068771894500,2.12189453125,0.8918008804321289,0.8051178455352783,0.018381260335445404
1659029068781564200,2.131564208984375,-1.1130428314208984,0.32668083906173706,0.14955152571201324
1659029068791234000,2.141234130859375,0.7998371124267578,-0.5312380790710449,0.004012279212474823
1659029068800903700,2.150903564453125,0.07182979583740234,0.07199698686599731,-0.10740293562412262
1659029068810573600,2.160573486328125,0.05991935729980469,-0.13577046990394592,-0.6563526391983032
1659029068820243500,2.170243408203125,-0.08705425262451172,-0.6789990663528442,-0.20020872354507446
1659029068829913300,2.179913330078125,0.49939632415771484,-0.7953888177871704,0.6266895532608032
1659029068839583000,2.1895830078125,-0.4402046203613281,-0.9178714156150818,0.35098057985305786
1659029068849252900,2.1992529296875,0.20966148376464844,-0.477267861366272,0.6082022190093994
1659029068858922800,2.2089228515625,-0.17859458923339844,-0.3109699487686157,0.4722540080547333
1659029068868592400,2.21859228515625,0.08518600463867188,-0.9558223485946655,0.0313464030623436
1659029068878262300,2.22826220703125,0.13121318817138672,-0.21999308466911316,0.08218806982040405
1659029068887932000,2.237931884765625,-0.07293415069580078,0.2808837890625,-0.13791796565055847
1659029068897601800,2.247601806640625,0.15720653533935547,-0.23039638996124268,-0.2653301954269409
1659029068907271700,2.257271728515625,-0.20484161376953125,-0.28640779852867126,0.16840875148773193
1659029068916941300,2.26694140625,-0.05880928039550781,0.007275372743606567,0.046781741082668304
1659029068926611200,2.276611083984375,-0.05737495422363281,-0.32120949029922485,0.1315302848815918
1659029068936281000,2.286281005859375,-0.04534435272216797,-0.7021734714508057,0.1662377119064331
1659029068945951000,2.295950927734375,-0.0033540725708007812,-0.6115620136260986,0.17833366990089417
1659029068955620600,2.30562060546875,-0.16646766662597656,-0.09929260611534119,-0.4393211603164673
1659029068965290500,2.31529052734375,0.5133790969848633,0.00009676814079284668,-0.5126665234565735
1659029068974960000,2.324960205078125,-0.3298358917236328,0.06210401654243469,-0.7651762962341309
1659029068984630000,2.334630126953125,0.19951438903808594,0.048926085233688354,-0.37836599349975586
1659029068994300000,2.3442998046875,0.036739349365234375,0.0439319908618927,0.18453258275985718
1659029069003969500,2.353969482421875,0.1297588348388672,-0.1717270016670227,0.20534437894821167
1659029069013639400,2.363639404296875,0.20560359954833984,-0.3096802532672882,0.0016489699482917786
1659029069023309300,2.373309326171875,-0.08701419830322266,0.22011232376098633,0.05868511646986008
1659029069032979200,2.382979248046875,-0.03772449493408203,-0.2239902913570404,-0.21345452964305878
1659029069042648800,2.39264892578125,0.05187416076660156,-0.282932311296463,-0.19296656548976898
1659029069052318700,2.402318603515625,-0.0006303787231445312,-0.21646475791931152,-0.3718164563179016
1659029069061988600,2.411988525390625,-0.07079124450683594,-0.1878626048564911,-0.487342894077301
1659029069071658200,2.421658203125,-0.08233261108398438,-0.44638490676879883,-0.25293418765068054
1659029069081328000,2.431328125,0.05399322509765625,-0.18294012546539307,-0.25075381994247437
1659029069090997800,2.440997802734375,-0.018898963928222656,0.03070122003555298,-0.37987297773361206
1659029069100667600,2.450667724609375,0.02056598663330078,0.11042547225952148,-0.5277376770973206
1659029069110337500,2.460337646484375,0.07894611358642578,0.2944166660308838,-0.8348767757415771
1659029069120007200,2.470007080078125,-0.21689414978027344,0.7469310760498047,-0.8164491057395935
1659029069129677000,2.479677001953125,0.11287975311279297,-0.08500775694847107,-0.7207730412483215
1659029069139347000,2.489346923828125,-0.04604530334472656,-0.18959015607833862,-0.12041889131069183
1659029069149016800,2.499016845703125,-0.020766258239746094,-0.6645069122314453,0.5306639671325684
1659029069158686500,2.5086865234375,0.1307687759399414,-0.5173785090446472,0.7733694911003113
1659029069168356400,2.5183564453125,-0.18912696838378906,-0.24865317344665527,0.7312015295028687
1659029069178026000,2.52802587890625,0.07507610321044922,-0.17214789986610413,0.512258768081665
1659029069187695900,2.53769580078125,-0.06573772430419922,0.34217017889022827,0.1900082677602768
1659029069197365800,2.54736572265625,-0.1416950225830078,0.5431064963340759,0.022507168352603912
1659029069207035400,2.557035400390625,-0.12795639038085938,0.3735266327857971,-0.44525715708732605
1659029069216705300,2.566705322265625,0.10148811340332031,0.44740331172943115,-0.3155791163444519
1659029069226375200,2.576375244140625,0.0022058486938476562,0.49044662714004517,-0.38565951585769653
1659029069236044800,2.586044921875,-0.05076885223388672,0.07884001731872559,-0.020678747445344925
1659029069245714700,2.595714599609375,-0.3123798370361328,0.12755805253982544,0.34870365262031555
1659029069255384600,2.605384521484375,0.1693096160888672,-0.203212708234787,0.4219503402709961
1659029069265054200,2.61505419921875,0.2699871063232422,0.4780930280685425,-0.18545463681221008
1659029069274724000,2.62472412109375,-0.26764488220214844,0.15154606103897095,0.0813169851899147
1659029069284394000,2.63439404296875,-0.29977893829345703,0.15388751029968262,0.24521490931510925
1659029069294063600,2.644063720703125,0.2946290969848633,0.15584325790405273,0.3590288758277893
1659029069303733500,2.6537333984375,0.14025497436523438,0.012180328369140625,0.2372218817472458
1659029069313403400,2.6634033203125,-0.037354469299316406,-0.15669333934783936,0.1500832438468933
1659029069323073000,2.673072998046875,-0.06274127960205078,-0.16027379035949707,0.36688879132270813
1659029069332743000,2.682742919921875,0.2652273178100586,-0.05650651454925537,0.22788304090499878
1659029069342412500,2.69241259765625,-0.20290851593017578,-0.12452208995819092,0.29711735248565674
1659029069352082400,2.70208251953125,0.04384899139404297,-0.19397595524787903,0.2009284794330597
1659029069361752300,2.71175244140625,-0.015956878662109375,-0.12309485673904419,-0.182527095079422
1659029069371422200,2.721422119140625,-0.048943519592285156,-0.39246320724487305,-0.21418839693069458
1659029069381091800,2.731091796875,0.20120620727539062,0.2668333649635315,-0.06238169223070145
1659029069390761700,2.74076171875,-0.05047798156738281,0.2772597670555115,-0.18070873618125916
1659029069400431600,2.750431640625,-0.0756216049194336,-0.03814190626144409,0.0728117823600769
1659029069410101200,2.760101318359375,0.14088726043701172,0.17140132188796997,-0.01648108661174774
1659029069419771100,2.769771240234375,0.12567806243896484,0.2552996277809143,-0.1672898828983307
1659029069429440800,2.779440673828125,-0.39997196197509766,0.07616722583770752,-0.11093005537986755
1659029069439110700,2.789110595703125,-0.05803966522216797,0.0025464892387390137,-0.07072636485099792
1659029069448780500,2.798780517578125,-0.032370567321777344,-0.06713223457336426,-0.28145450353622437
1659029069458450400,2.808450439453125,0.24355411529541016,-0.23557674884796143,-0.0660288855433464
1659029069468120000,2.8181201171875,0.01586627960205078,-0.22853970527648926,0.09015745669603348
1659029069477790000,2.8277900390625,-0.17740154266357422,-0.29434147477149963,0.2623155117034912
1659029069487459800,2.8374599609375,0.2560758590698242,-0.6595077514648438,0.4543587565422058
1659029069497129500,2.84712939453125,-0.2483348846435547,-0.3074023127555847,0.6010070443153381
1659029069506799400,2.85679931640625,-0.016030311584472656,-0.5787904262542725,0.09268151968717575
1659029069516469000,2.866468994140625,0.16765880584716797,-0.45308011770248413,0.06353029608726501
1659029069526139000,2.876138916015625,0.03427886962890625,-0.3307310938835144,-0.11863766610622406
1659029069535808800,2.885808837890625,0.16434669494628906,-0.48032182455062866,-0.046551529318094254
1659029069545478400,2.895478515625,-0.05016326904296875,-0.34260135889053345,0.388441264629364
1659029069555148300,2.905148193359375,-0.2046489715576172,-0.716447651386261,0.6816441416740417
1659029069564818200,2.914818115234375,0.06481361389160156,-0.6410372853279114,0.8197818398475647
1659029069574488000,2.924488037109375,0.1779346466064453,-0.4591677188873291,0.44055742025375366
1659029069584157700,2.93415771484375,-0.24972057342529297,-0.14829561114311218,0.16818632185459137
1659029069593827600,2.94382763671875,0.20162105560302734,-0.25283825397491455,-0.16813790798187256
1659029069603497200,2.953497314453125,0.03837776184082031,-0.11084061861038208,-0.16425898671150208
1659029069613167000,2.9631669921875,-0.0563201904296875,0.018680542707443237,0.03035147488117218
1659029069622837000,2.9728369140625,-0.31423473358154297,-0.061336398124694824,-0.17925792932510376
1659029069632506600,2.982506591796875,0.19456768035888672,-0.19296503067016602,-0.23502621054649353
1659029069642176500,2.992176513671875,0.1419668197631836,0.1005990207195282,-0.14693129062652588
1659029069651846400,3.001846435546875,-0.0026330947875976562,-0.22750331461429596,-0.16284313797950745
1659029069661516000,3.01151611328125,-0.23193073272705078,-0.40890374779701233,-0.16253206133842468
1659029069671186000,3.02118603515625,0.11199474334716797,-0.47915372252464294,-0.19599643349647522
1659029069680855800,3.030855712890625,-0.046360015869140625,-0.36896219849586487,0.01812601089477539
1659029069690525700,3.040525634765625,0.067352294921875,-0.5158481597900391,-0.13094136118888855
1659029069700195300,3.0501953125,0.05442047119140625,-0.4970903992652893,-0.2810817062854767
1659029069709865200,3.059865234375,0.015878677368164062,-0.32217687368392944,-0.22412405908107758
1659029069719534800,3.069534912109375,-0.09968376159667969,-0.01831933856010437,-0.46752798557281494
1659029069729204700,3.079204833984375,0.04086112976074219,-0.0924639105796814,-0.6001722812652588
1659029069738874600,3.08887451171875,-0.31161975860595703,0.3535590171813965,-0.22218185663223267
1659029069748544300,3.098544189453125,0.31131744384765625,-0.026441186666488647,-0.05940531939268112
1659029069758214100,3.108214111328125,-0.1537914276123047,0.11487716436386108,0.025448739528656006
1659029069767883800,3.1178837890625,0.0628662109375,0.3430631458759308,-0.11334104835987091
1659029069777554000,3.127553955078125,-0.1534881591796875,0.022544503211975098,-0.21412035822868347
1659029069787223600,3.1372236328125,0.22205448150634766,0.338767945766449,-0.0825679823756218
1659029069796893400,3.1468935546875,0.02189350128173828,0.4291401505470276,-0.06638728082180023
1659029069806563000,3.15656298828125,-0.050278663635253906,0.3057508170604706,-0.24629080295562744
1659029069816233000,3.16623291015625,-0.09536457061767578,0.21805113554000854,-0.3559158444404602
1659029069825902800,3.17590283203125,0.2639322280883789,0.5400716066360474,-0.27035343647003174
1659029069835572500,3.185572509765625,-0.35341453552246094,0.6358847618103027,-0.24285808205604553
1659029069845242400,3.195242431640625,0.1183938980102539,-0.0694689154624939,-0.14456236362457275
1659029069854912300,3.204912353515625,-0.02472972869873047,0.5017209053039551,-0.3309788405895233
1659029069864582000,3.214581787109375,-0.09961986541748047,0.06415748596191406,-0.011532315984368324
1659029069874251800,3.224251708984375,-0.07684612274169922,0.10799217224121094,0.1135680302977562
1659029069883921700,3.233921630859375,0.06436920166015625,0.16883450746536255,0.03940246254205704
1659029069893591300,3.24359130859375,-0.1919870376586914,0.13628408312797546,0.21959607303142548
1659029069903261200,3.25326123046875,-0.2628774642944336,-0.08190536499023438,0.16363584995269775
1659029069912931000,3.26293115234375,0.3696908950805664,0.498380184173584,0.34936198592185974
1659029069922600700,3.2726005859375,-0.14589881896972656,0.010437041521072388,0.6209900379180908
1659029069932270600,3.2822705078125,0.37775135040283203,0.25888967514038086,0.30685698986053467
1659029069941940500,3.2919404296875,-0.08384895324707031,0.20190531015396118,0.47800275683403015
1659029069951610000,3.301610107421875,0.06221771240234375,0.2613384425640106,0.2990400791168213
1659029069961280000,3.311280029296875,-0.3176107406616211,0.5693106651306152,0.28311967849731445
1659029069970949600,3.32094970703125,-0.3439817428588867,0.7556060552597046,0.305417537689209
1659029069980619500,3.33061962890625,-0.4675722122192383,0.5098041296005249,0.23033960163593292
1659029069990289400,3.340289306640625,-0.4597043991088867,0.2925652861595154,0.3794844150543213
1659029069999959300,3.349959228515625,0.12201499938964844,0.09674227237701416,0.5548898577690125
1659029070009629000,3.35962890625,-0.03047943115234375,0.45201945304870605,0.21027788519859314
1659029070019298800,3.369298828125,0.01950550079345703,0.38988226652145386,-0.029784947633743286
1659029070028968700,3.37896875,0.37932395935058594,-0.005020022392272949,-0.22659188508987427
1659029070038638300,3.388638427734375,-0.4492521286010742,0.2846583127975464,-0.3585017919540405
1659029070048308200,3.39830810546875,0.20520496368408203,-0.026686429977416992,-0.33491331338882446
1659029070057977900,3.407977783203125,-0.22648239135742188,-0.3660210371017456,-0.2520449757575989
1659029070067647700,3.417647705078125,0.26327037811279297,-0.7321094274520874,-0.07605165988206863
1659029070077317600,3.427317626953125,0.21890830993652344,-0.26220056414604187,0.24066510796546936
1659029070086987500,3.436987548828125,-0.33980464935302734,-0.045794397592544556,0.08169116824865341
1659029070096657200,3.4466572265625,0.019904136657714844,-0.5489647388458252,-0.014661058783531189
1659029070106327000,3.4563271484375,-0.017999649047851562,-0.08681756258010864,-0.01385718584060669
1659029070115997000,3.465996826171875,-0.011849403381347656,-0.5929808020591736,-0.31586208939552307
1659029070125666600,3.47566650390625,0.42139625549316406,-0.3881256580352783,-0.08807553350925446
1659029070135336400,3.48533642578125,-0.14789295196533203,-0.9140948057174683,-0.17084194719791412
1659029070145006000,3.495006103515625,-0.09720802307128906,-0.9213123917579651,0.1280428171157837
1659029070154676000,3.504676025390625,-0.32254695892333984,-0.4319009780883789,0.011990971863269806
1659029070164345900,3.514345947265625,0.19104385375976562,-0.1416541039943695,-0.20467916131019592
1659029070174015500,3.524015380859375,0.15137195587158203,-0.13739395141601562,-0.2829406261444092
1659029070183685400,3.533685302734375,-0.14177608489990234,-0.3658289313316345,-0.24058207869529724
1659029070193355300,3.543355224609375,0.31246089935302734,-0.1016770601272583,-0.30836018919944763
1659029070203025200,3.553025146484375,-0.03391838073730469,-0.015699058771133423,-0.4816809892654419
1659029070212694800,3.56269482421875,-0.15220165252685547,-0.4953305125236511,-0.26842817664146423
1659029070222364700,3.57236474609375,-0.1555948257446289,-0.20042860507965088,-0.24412941932678223
1659029070232034300,3.582034423828125,0.09996223449707031,-0.506524384021759,-0.045305006206035614
1659029070241704200,3.5917041015625,0.12767791748046875,-0.8452950716018677,0.10076002031564713
1659029070251374000,3.6013740234375,0.02428150177001953,-0.6254785060882568,-0.13718241453170776
1659029070261043700,3.611043701171875,0.126251220703125,-0.5065867900848389,-0.31632620096206665
1659029070270713600,3.620713623046875,-0.17116928100585938,-0.515486478805542,-0.38375163078308105
1659029070280383500,3.630383544921875,0.2187519073486328,-0.15775254368782043,-0.04446258395910263
1659029070290053400,3.640053466796875,-0.1284809112548828,-0.5035357475280762,-0.12420037388801575
1659029070299723000,3.649722900390625,-0.05821990966796875,-0.017556458711624146,0.0939391702413559
1659029070309393000,3.659392822265625,-0.07389068603515625,-0.2624836564064026,-0.10265728831291199
1659029070319062500,3.6690625,0.053096771240234375,-0.18599024415016174,0.10597013682126999
1659029070328732400,3.678732421875,0.059200286865234375,-0.3774664103984833,-0.07388654351234436
1659029070338402300,3.68840234375,-0.14075374603271484,-0.37774792313575745,-0.20299121737480164
1659029070348072000,3.698072021484375,0.1814861297607422,0.08102241158485413,-0.1359170377254486
1659029070357741800,3.707741943359375,-0.009865760803222656,-0.18530775606632233,-0.4800995886325836
1659029070367411700,3.71741162109375,0.2584714889526367,-0.04392433166503906,-0.3643313944339752
1659029070377081600,3.72708154296875,-0.16943836212158203,-0.01985377073287964,0.1416683793067932
1659029070386751200,3.736751220703125,0.041525840759277344,0.25935617089271545,0.17644506692886353
1659029070396421000,3.746421142578125,0.07724857330322266,0.026351183652877808,0.6012048721313477
1659029070406091000,3.756091064453125,0.18537425994873047,0.8768082857131958,0.21726462244987488
1659029070415760600,3.7657607421875,-0.15182209014892578,0.7001177072525024,0.16163095831871033
1659029070425430500,3.775430419921875,0.7294082641601562,0.5760072469711304,0.5022528767585754
1659029070435100200,3.78510009765625,-2.2367568016052246,1.5236334800720215,-0.039108965545892715
1659029070444770000,3.79477001953125,1.6914710998535156,0.7657120227813721,0.014606192708015442
1659029070454440000,3.80443994140625,-1.1088933944702148,0.8540104627609253,0.07526373863220215
1659029070464109600,3.814109619140625,0.12302494049072266,0.021823883056640625,0.18905597925186157
1659029070473779500,3.823779541015625,-0.06004047393798828,-0.03896486759185791,0.12991982698440552
1659029070483449300,3.833449462890625,0.2396221160888672,-0.15139207243919373,0.0993971973657608
1659029070493119200,3.843119140625,-0.14416122436523438,-0.20883053541183472,-0.05601777881383896
1659029070502788900,3.852788818359375,0.06377887725830078,-0.5051933526992798,-0.0851556807756424
1659029070512458800,3.862458740234375,-0.3350515365600586,-0.3454010784626007,-0.02471127361059189
1659029070522128400,3.87212841796875,0.46536731719970703,0.18663054704666138,-0.20265361666679382
1659029070531798300,3.88179833984375,-0.2411813735961914,-0.30822402238845825,-0.28705477714538574
1659029070541468200,3.89146826171875,-0.20008087158203125,-0.28304144740104675,-0.24267718195915222
1659029070551137800,3.9011376953125,0.010362625122070312,-0.1947704553604126,-0.23640123009681702
1659029070560807700,3.9108076171875,0.02104473114013672,-0.3578192889690399,-0.2313404232263565
1659029070570477600,3.9204775390625,0.17967605590820312,-0.5881764888763428,-0.3818308115005493
1659029070580147500,3.9301474609375,0.032466888427734375,-0.276408314704895,-0.22858089208602905
1659029070589817000,3.939817138671875,-0.08103370666503906,-0.8668721914291382,-0.027146417647600174
1659029070599487000,3.949487060546875,0.0909891128540039,-0.4410479962825775,0.4342402219772339
1659029070609156600,3.959156494140625,-0.27095985412597656,-0.18554675579071045,0.42068904638290405
1659029070618826500,3.968826416015625,0.32398509979248047,-0.434012770652771,0.5504006147384644
1659029070628496400,3.978496337890625,-0.026452064514160156,0.005108773708343506,-0.32138437032699585
1659029070638166000,3.988166015625,0.44739341735839844,-0.1823149174451828,-0.3229300081729889
1659029070647836000,3.9978359375,-0.914250373840332,0.05511581897735596,-0.45272594690322876
1659029070657505800,4.007505859375,1.5122919082641602,-0.5376661419868469,0.07470851391553879
1659029070667175700,4.01717578125,-1.444406509399414,-0.18480443954467773,0.11377429962158203
1659029070676845300,4.02684521484375,-0.8774614334106445,0.028354734182357788,0.199247807264328
1659029070686515200,4.03651513671875,1.7255220413208008,-0.7410911321640015,0.04009275883436203
1659029070696184800,4.046184814453125,1.733236312866211,0.18518289923667908,0.9187316298484802
1659029070705854700,4.055854736328125,-3.5785999298095703,0.40296632051467896,0.26653796434402466
1659029070715524600,4.065524658203125,0.4563016891479492,-0.5012322068214417,0.25726017355918884
1659029070725194200,4.0751943359375,3.139911651611328,0.555307149887085,0.0803762674331665
1659029070734864100,4.084864013671875,-3.50308895111084,1.0954194068908691,-0.05649745464324951
1659029070744534000,4.094533935546875,1.9467430114746094,0.1986370086669922,-0.7137741446495056
1659029070754204000,4.104203857421875,-2.019716262817383,1.6204743385314941,-0.47559893131256104
1659029070763873500,4.11387353515625,1.463998794555664,1.0486476421356201,-0.2889144718647003
1659029070773543400,4.12354345703125,0.28659820556640625,1.5514053106307983,-0.25137943029403687
1659029070783213000,4.133213134765625,-1.3650751113891602,0.8939838409423828,0.07334436476230621
1659029070792883000,4.142883056640625,-0.3991365432739258,0.9136756658554077,-0.11843052506446838
1659029070802552800,4.152552734375,2.2150068283081055,1.0243960618972778,1.0398896932601929
1659029070812222500,4.162222412109375,-2.824650764465332,0.9340270757675171,0.38576966524124146
1659029070821892400,4.171892333984375,3.584221839904785,1.2021827697753906,0.16546103358268738
1659029070831562200,4.181562255859375,-3.1805076599121094,1.1936414241790771,-0.38430026173591614
1659029070841232100,4.191232177734375,1.0066728591918945,1.4798765182495117,-0.798618733882904
1659029070850901800,4.20090185546875,1.8113384246826172,1.7015492916107178,-1.4297232627868652
1659029070860571600,4.210571533203125,-3.367464065551758,1.6509488821029663,-1.2881306409835815
1659029070870241300,4.2202412109375,0.5289735794067383,1.3229990005493164,-1.3578838109970093
1659029070879911200,4.2299111328125,3.1018924713134766,1.490854024887085,-1.5573381185531616
1659029070889581000,4.2395810546875,-1.4010505676269531,0.39388081431388855,-0.7106095552444458
1659029070899250700,4.249250732421875,-2.0213913917541504,0.17375385761260986,0.32927337288856506
1659029070908920600,4.258920654296875,-0.3741464614868164,0.26396703720092773,0.27239611744880676
1659029070918590500,4.268590576171875,1.4824657440185547,-0.2336065173149109,0.6346035003662109
1659029070928260400,4.27826025390625,2.208195686340332,-0.25430285930633545,0.03659360483288765
1659029070937930000,4.287929931640625,-0.8540163040161133,-0.355924516916275,0.8249520659446716
1659029070947600000,4.297599853515625,-3.3325653076171875,0.18107396364212036,0.3658615052700043
1659029070957269500,4.30726953125,1.4137582778930664,0.14845401048660278,-0.014733370393514633
1659029070966939400,4.316939453125,3.6551637649536133,0.2972588837146759,0.5431933403015137
1659029070976609300,4.326609375,-0.2343149185180664,0.195694237947464,0.17722348868846893
1659029070986279000,4.33627880859375,-3.4827804565429688,-0.055996596813201904,0.07953132688999176
1659029070995948800,4.34594873046875,-2.1320958137512207,-0.19473636150360107,0.5760381817817688
1659029071005618700,4.35561865234375,2.309332847595215,-0.5672961473464966,0.64081209897995
1659029071015288600,4.36528857421875,4.619479179382324,-0.4869827926158905,1.1199415922164917
1659029071024958200,4.374958251953125,-0.898320198059082,-1.0719791650772095,0.4836907982826233
1659029071034628000,4.384628173828125,-5.302541732788086,-0.40729326009750366,-0.0020953770726919174
1659029071044298000,4.394298095703125,0.5209264755249023,-0.8467328548431396,0.6182737350463867
1659029071053967600,4.403967529296875,4.973788261413574,-0.15691497921943665,-0.3964179456233978
1659029071063637500,4.413637451171875,-2.3366990089416504,-0.40705788135528564,-0.032870449125766754
1659029071073307100,4.42330712890625,-4.125638484954834,-0.370158314704895,0.2624658942222595
1659029071082977000,4.43297705078125,4.767313003540039,-0.7788569331169128,-0.393828421831131
1659029071092647000,4.44264697265625,1.7829093933105469,-0.8474171161651611,-0.10243835300207138
1659029071102316800,4.45231689453125,-5.1895246505737305,-0.21737569570541382,0.3281336724758148
1659029071111986400,4.461986328125,2.703765869140625,-0.66588294506073,0.6128284335136414
1659029071121656300,4.47165625,0.12910747528076172,0.8305167555809021,-0.7765950560569763
1659029071131326200,4.481326171875,-2.482544422149658,0.5713950991630554,-0.015324603766202927
1659029071140995800,4.490995849609375,2.15378475189209,-0.4911629855632782,-0.2541752755641937
1659029071150665700,4.500665771484375,-1.338231086730957,0.09137505292892456,-0.6102598309516907
1659029071160335600,4.510335693359375,-1.7848339080810547,-0.1867181360721588,0.6828266978263855
1659029071170005200,4.520005126953125,3.905548095703125,-1.1746742725372314,0.10727228969335556
1659029071179675100,4.529675048828125,-1.1404876708984375,-0.2238425612449646,-0.4082411229610443
1659029071189345000,4.539344970703125,-1.9646263122558594,-0.09224855899810791,1.063664436340332
1659029071199014700,4.5490146484375,2.563556671142578,-0.3039562702178955,-0.16587737202644348
1659029071208684500,4.5586845703125,-2.6350951194763184,0.5394856929779053,-0.8120290637016296
1659029071218354400,4.5683544921875,-0.8166723251342773,0.6542870402336121,-0.24882332980632782
1659029071228024000,4.578024169921875,3.4541797637939453,-0.050067901611328125,-0.7576308250427246
1659029071237694000,4.58769384765625,-2.6577844619750977,0.4855208992958069,-0.9448858499526978
1659029071247363800,4.59736376953125,1.4760284423828125,-0.04394739866256714,-0.2603153884410858
1659029071257033500,4.607033447265625,1.3400917053222656,-0.6974001526832581,-0.038079164922237396
1659029071266703400,4.616703369140625,-3.1423797607421875,0.032015085220336914,-0.11852174997329712
1659029071276373200,4.626373291015625,1.6040658950805664,-0.6264687776565552,0.6531664133071899
1659029071286043000,4.63604296875,-0.6827487945556641,-0.3061332106590271,0.0969415009021759
1659029071295712800,4.645712646484375,-1.7401952743530273,0.7685343027114868,-0.3193606436252594
1659029071305382700,4.655382568359375,2.2626266479492188,0.7519096732139587,-0.6923632025718689
1659029071315052300,4.66505224609375,-2.4251790046691895,0.5856189131736755,-0.49672406911849976
1659029071324722200,4.67472216796875,-0.924774169921875,1.712294340133667,-0.6518135070800781
1659029071334392000,4.68439208984375,2.4337730407714844,1.3543999195098877,-0.7322709560394287
1659029071344061700,4.694061767578125,-1.1796340942382812,1.2464346885681152,-0.26336267590522766
1659029071353731600,4.703731689453125,-2.2245826721191406,1.4531352519989014,-0.8439153432846069
1659029071363401500,4.7134013671875,1.0162582397460938,2.1796207427978516,-0.4993489682674408
1659029071373071000,4.723071044921875,0.6030025482177734,0.905012845993042,0.04694952815771103
1659029071382741000,4.732740966796875,-0.8344135284423828,0.4502321779727936,-0.37049826979637146
1659029071392411000,4.742410888671875,-0.32790184020996094,0.041451722383499146,-0.27534207701683044
1659029071402080800,4.752080810546875,-0.6736536026000977,0.10355314612388611,-0.7888335585594177
1659029071411750400,4.76175048828125,-0.6985111236572266,0.6838589906692505,-0.5075781345367432
1659029071421420300,4.771420166015625,1.4578847885131836,0.5305901765823364,-0.8221544027328491
1659029071431090000,4.78108984375,1.9709415435791016,0.5649698972702026,-0.4014859199523926
1659029071440759800,4.790759765625,0.3072395324707031,-0.6566629409790039,0.12486081570386887
1659029071450429700,4.8004296875,-1.1400442123413086,-0.5933825969696045,0.11381693184375763
1659029071460099300,4.810099365234375,0.5454587936401367,-1.1441477537155151,0.8281951546669006
1659029071469769200,4.819769287109375,-0.4404783248901367,-0.8901962041854858,0.6749312877655029
1659029071479439000,4.829439208984375,-0.17696380615234375,-0.4238048195838928,1.1742503643035889
1659029071489109000,4.83910888671875,1.233205795288086,-0.6770294904708862,1.694140911102295
1659029071498778600,4.848778564453125,-0.6671419143676758,-0.5386110544204712,1.1221528053283691
1659029071508448500,4.858448486328125,-1.1562833786010742,-0.743985652923584,1.0752209424972534
1659029071518118400,4.868118408203125,0.9506464004516602,0.08702540397644043,1.224037528038025
1659029071527788000,4.8777880859375,0.3578500747680664,0.5615507364273071,0.9862594604492188
1659029071537458000,4.8874580078125,-1.3233642578125,-1.061166763305664,1.1928491592407227
1659029071547127800,4.8971279296875,1.3699512481689453,-0.1255490481853485,0.792151689529419
1659029071556797400,4.90679736328125,0.25133705139160156,-0.6472275853157043,1.3390510082244873
1659029071566467300,4.91646728515625,-3.007923126220703,-1.3411035537719727,0.5511049032211304
1659029071576137200,4.92613720703125,3.7838172912597656,-1.8535075187683105,1.7242093086242676
1659029071585806800,4.935806884765625,-3.5004806518554688,-2.255101203918457,0.5391044020652771
1659029071595476700,4.945476806640625,2.387589454650879,-1.7987008094787598,0.512405514717102
1659029071605146600,4.955146728515625,-0.41014766693115234,-2.313455581665039,-0.14443117380142212
1659029071614816300,4.964816162109375,1.1253328323364258,-0.9416664838790894,-0.11253847181797028
1659029071624486100,4.974486083984375,-2.959214210510254,-1.2542191743850708,-0.7213151454925537
1659029071634156000,4.984156005859375,2.481663703918457,0.008410245180130005,0.1819469928741455
1659029071643825700,4.99382568359375,-2.1069116592407227,-0.7944098711013794,-1.364789366722107
1659029071653495600,5.00349560546875,3.011821746826172,-0.6635540723800659,0.7521464824676514
1659029071663165400,5.01316552734375,-2.01204776763916,-0.5337506532669067,-0.5445655584335327
1659029071672835000,5.0228349609375,-0.9527931213378906,-1.2057843208312988,-0.3925873637199402
1659029071682505000,5.0325048828125,2.8193931579589844,-0.1576712429523468,-0.24924220144748688
1659029071692174800,5.0421748046875,-1.331456184387207,-0.07225692272186279,-1.4377585649490356
1659029071701844700,5.0518447265625,-0.9656953811645508,-0.5433523654937744,-0.3035939335823059
1659029071711514400,5.061514404296875,2.042372703552246,-0.14031396806240082,0.4259287714958191
1659029071721184300,5.071184326171875,-0.9964275360107422,0.026041179895401,-0.3440614938735962
1659029071730854000,5.08085400390625,-1.0874252319335938,-0.41727831959724426,0.6707152724266052
1659029071740523800,5.090523681640625,1.9649171829223633,-0.1894262135028839,0.5941515564918518
1659029071750193700,5.100193603515625,-0.6653776168823242,0.3834145963191986,-0.15723714232444763
1659029071759863300,5.10986328125,-2.2765703201293945,-0.014258891344070435,-0.4664784073829651
1659029071769533200,5.119533203125,3.4520187377929688,-0.015192896127700806,0.9522963762283325
1659029071779203000,5.129203125,-1.0808544158935547,-0.3923722505569458,0.10250182449817657
1659029071788873000,5.138873046875,-0.9218416213989258,0.5758963823318481,0.7042376399040222
1659029071798542600,5.14854248046875,-0.7072782516479492,0.5360499620437622,-0.07665037363767624
1659029071808212500,5.15821240234375,2.06943416595459,1.0001589059829712,0.5836291909217834
1659029071817882000,5.167882080078125,-0.8119840621948242,0.6647552847862244,0.30507975816726685
1659029071827552000,5.177552001953125,-0.4734783172607422,0.3397071361541748,0.4906075596809387
1659029071837222000,5.187221923828125,0.9194889068603516,0.4991864562034607,0.17575284838676453
1659029071846891800,5.196891845703125,-1.1236095428466797,0.47114288806915283,-0.4610002040863037
1659029071856561400,5.2065615234375,-0.058780670166015625,-0.4613122344017029,-0.1668824702501297
1659029071866231300,5.216231201171875,1.759171485900879,0.17640140652656555,1.269618034362793
1659029071875901200,5.225901123046875,-1.3495311737060547,-0.7257199287414551,0.6604217290878296
1659029071885570800,5.23557080078125,0.039325714111328125,0.5274815559387207,0.44925981760025024
1659029071895240700,5.24524072265625,0.40329551696777344,-0.1598150134086609,-0.41178441047668457
1659029071904910300,5.254910400390625,0.16961669921875,0.20403426885604858,-0.43325161933898926
1659029071914580500,5.26458056640625,0.04520416259765625,0.5026525259017944,-0.24708309769630432
1659029071924250000,5.27425,-1.4779167175292969,0.5061708688735962,-0.6322698593139648
1659029071933920000,5.283919921875,1.797257423400879,0.3182622492313385,0.11888419091701508
1659029071943589600,5.293589599609375,-0.632267951965332,0.4372043013572693,-0.7362139225006104
1659029071953259500,5.303259521484375,-0.49346160888671875,0.2687131464481354,-0.2720949947834015
1659029071962929400,5.312929443359375,0.7120723724365234,0.15845578908920288,-0.6515927314758301
1659029071972599000,5.32259912109375,-0.30635929107666016,-0.18758606910705566,0.16423295438289642
1659029071982269000,5.33226904296875,-0.8952951431274414,-0.3114124536514282,0.3461492657661438
1659029071991938800,5.341938720703125,1.9188079833984375,-1.3026564121246338,0.8419697284698486
1659029072001608700,5.351608642578125,-1.4754047393798828,-0.2977290749549866,0.636380136013031
1659029072011278300,5.3612783203125,0.27062129974365234,-0.29352450370788574,0.18620258569717407
1659029072020948200,5.3709482421875,0.8691768646240234,0.03645765781402588,-0.37850895524024963
1659029072030617900,5.380617919921875,-0.6069717407226562,0.9617469906806946,-1.07377290725708
1659029072040287700,5.390287841796875,-0.0922384262084961,0.6839447021484375,-0.7702823877334595
1659029072049957600,5.39995751953125,-0.2854480743408203,0.44175654649734497,-1.1993836164474487
1659029072059627500,5.40962744140625,0.40384960174560547,0.15821519494056702,-0.232456237077713
1659029072069297200,5.419297119140625,-0.3391733169555664,-0.2953978478908539,-0.17301279306411743
1659029072078967000,5.428967041015625,-0.27669429779052734,0.57662433385849,0.1877841055393219
1659029072088637000,5.438636962890625,-0.8741340637207031,-1.2089622020721436,0.2619684338569641
1659029072098306600,5.448306640625,2.070995330810547,0.5807522535324097,0.06621893495321274
1659029072107976400,5.4579765625,-1.4141712188720703,0.2885127365589142,-0.6937031745910645
1659029072117646300,5.467646240234375,1.4942378997802734,-0.28557759523391724,-0.39784905314445496
1659029072127316000,5.47731591796875,-0.8938007354736328,0.5488376021385193,0.19455957412719727
1659029072136985900,5.48698583984375,-0.5241708755493164,0.4289563298225403,-0.2683752477169037
1659029072146655700,5.49665576171875,0.8307247161865234,-0.09903907775878906,0.5014935731887817
1659029072156325400,5.506325439453125,-0.20263290405273438,0.031628549098968506,0.18458379805088043
1659029072165995300,5.515995361328125,-0.22349262237548828,0.010759443044662476,0.6415733695030212
1659029072175665200,5.5256650390625,0.210296630859375,-0.3773462474346161,0.43914440274238586
1659029072185335000,5.5353349609375,-0.30832481384277344,0.8381702899932861,0.07432104647159576
1659029072195004700,5.545004638671875,0.34884166717529297,-0.917482852935791,0.28837841749191284
1659029072204674600,5.554674560546875,-0.22368240356445312,0.2501569390296936,-0.16683867573738098
1659029072214344200,5.56434423828125,0.5157155990600586,-0.2674109935760498,-0.14329245686531067
1659029072224014000,5.57401416015625,-0.16811847686767578,0.14270758628845215,-0.758802056312561
1659029072233684000,5.58368408203125,0.09257221221923828,-0.17697058618068695,-0.8031812310218811
1659029072243353600,5.593353515625,0.2545442581176758,-0.35547012090682983,-0.315729022026062
1659029072253023500,5.6030234375,-0.42276859283447266,-0.4612029790878296,0.3473774790763855
1659029072262693400,5.612693359375,-0.4145946502685547,-0.0594746470451355,-0.03517123684287071
1659029072272363300,5.62236328125,0.5972537994384766,-0.1106206476688385,0.10842114686965942
1659029072282033000,5.632032958984375,-0.17406940460205078,-0.11685550212860107,-0.29602813720703125
1659029072291702800,5.641702880859375,0.12118911743164062,0.8918372988700867,-0.6564737558364868
1659029072301372700,5.65137255859375,-0.030717849731445312,-0.11052197217941284,-0.700585126876831
1659029072311042600,5.66104248046875,0.08634662628173828,0.20576044917106628,0.13661831617355347
1659029072320712200,5.670712158203125,0.058556556701660156,-0.5087383985519409,0.5590590834617615
1659029072330382000,5.680382080078125,0.6110420227050781,-0.3744300901889801,1.0496069192886353
1659029072340051700,5.6900517578125,-0.6447629928588867,-0.3298540711402893,0.7670973539352417
1659029072349721600,5.6997216796875,-0.04992961883544922,0.08827674388885498,0.7307921051979065
1659029072359391500,5.7093916015625,-0.38512611389160156,-0.511024534702301,0.21795333921909332
1659029072369061000,5.71906103515625,0.4165334701538086,0.31571143865585327,-0.39327314496040344
1659029072378731000,5.72873095703125,0.05753898620605469,-0.0712430477142334,-0.5100338459014893
1659029072388401000,5.73840087890625,0.3759422302246094,0.061343371868133545,-0.5827854871749878
1659029072398070800,5.74807080078125,0.06233501434326172,0.8796267509460449,-0.703112006187439
1659029072407740400,5.757740478515625,-0.5583477020263672,0.3776969909667969,-0.14187964797019958
1659029072417410300,5.767410400390625,-0.010380744934082031,0.7691776156425476,0.08138029277324677
1659029072427080000,5.777079833984375,0.19373798370361328,0.8775819540023804,-0.25648143887519836
1659029072436749800,5.786749755859375,-0.06822967529296875,-0.2591556906700134,-0.8679153919219971
1659029072446419700,5.796419677734375,0.3138713836669922,0.6130086183547974,-0.34367382526397705
1659029072456089600,5.806089599609375,-0.8838109970092773,0.6469516158103943,-0.35044026374816895
1659029072465759200,5.81575927734375,0.4203310012817383,-0.36904340982437134,-0.5945740342140198
1659029072475429000,5.82542919921875,0.018289566040039062,-0.46906864643096924,0.3259592056274414
1659029072485099000,5.83509912109375,-0.21453857421875,0.3901795446872711,0.30604231357574463
1659029072494768600,5.8447685546875,0.2013397216796875,0.05292242765426636,-0.4054526388645172
1659029072504438500,5.8544384765625,0.24976825714111328,-0.2787209153175354,0.23632171750068665
1659029072514108400,5.8641083984375,-0.1637716293334961,0.710879385471344,0.835423469543457
1659029072523778000,5.873778076171875,0.004917144775390625,-0.08480837941169739,0.5105424523353577
1659029072533448000,5.883447998046875,0.14458465576171875,0.6004959344863892,0.7880553007125854
1659029072543117800,5.893117919921875,-0.20540428161621094,0.15942394733428955,0.4967089891433716
1659029072552787500,5.902787353515625,0.13407516479492188,1.1856255531311035,-0.2920733392238617
1659029072562457300,5.912457275390625,0.15649986267089844,0.8798165917396545,-0.31026947498321533
1659029072572127200,5.922127197265625,-0.16492652893066406,0.8800075054168701,-0.2226346731185913
1659029072581797000,5.931797119140625,0.14817333221435547,-0.19401606917381287,0.4687682092189789
1659029072591466800,5.941466796875,-0.1039886474609375,0.421265184879303,0.529615581035614
1659029072601136600,5.95113671875,0.08127880096435547,-0.15357021987438202,0.3796694874763489
1659029072610806500,5.960806640625,0.0787343978881836,0.21804103255271912,0.3162424862384796
1659029072620476200,5.97047607421875,-0.2174205780029297,0.4054926335811615,0.054272688925266266
1659029072630146000,5.98014599609375,0.08508586883544922,0.13869571685791016,-0.16910406947135925
1659029072639816000,5.98981591796875,0.0013141632080078125,0.5944654941558838,-0.3269485831260681
1659029072649485600,5.999485595703125,-0.017762184143066406,0.1539899706840515,-0.5055094957351685
1659029072659155500,6.009155517578125,-0.0058135986328125,0.6101690530776978,-0.3770262897014618
1659029072668825300,6.018825439453125,0.013265609741210938,0.5471449494361877,-0.18025021255016327
1659029072678495000,6.028494873046875,-0.11452484130859375,0.17251241207122803,-0.011518888175487518
1659029072688164900,6.038164794921875,-0.004469871520996094,0.14402708411216736,0.24818632006645203
1659029072697834800,6.047834716796875,0.2056121826171875,0.3289527893066406,0.299280047416687
1659029072707504600,6.057504638671875,-0.01681041717529297,0.4596371054649353,-0.042075008153915405
1659029072717174300,6.06717431640625,0.038247108459472656,0.5747078061103821,-0.4022291898727417
1659029072726844200,6.07684423828125,-0.14435958862304688,0.9840343594551086,-0.7384641766548157
1659029072736513800,6.086513671875,0.055328369140625,0.9511162042617798,-0.5268155932426453
1659029072746183700,6.09618359375,-0.32074737548828125,0.7903435230255127,-0.861602783203125
1659029072755853600,6.105853515625,0.376922607421875,0.22849833965301514,0.27005937695503235
1659029072765523500,6.1155234375,-0.991673469543457,-0.11117017269134521,0.503312885761261
1659029072775193000,6.125193115234375,0.35461997985839844,-0.14502769708633423,0.7481916546821594
1659029072784863000,6.134863037109375,0.27141284942626953,0.2473035454750061,0.9909358024597168
1659029072794532900,6.144532958984375,-0.253173828125,0.5639874935150146,0.06843873858451843
1659029072804202500,6.154202392578125,-0.14391231536865234,0.2647794783115387,-0.47147896885871887
1659029072813872400,6.163872314453125,-0.1483936309814453,0.11172592639923096,-0.6741252541542053
1659029072823542300,6.173542236328125,0.5955886840820312,0.40488293766975403,-0.8468919396400452
1659029072833212000,6.1832119140625,-0.4441661834716797,-0.3673665225505829,0.2885902225971222
1659029072842881800,6.1928818359375,0.2551279067993164,-0.4757729172706604,0.8387247323989868
1659029072852551700,6.2025517578125,-0.19548511505126953,-0.16539141535758972,0.7835848331451416
1659029072862221300,6.21222119140625,0.39577388763427734,-0.5977530479431152,0.522118866443634
1659029072871891200,6.22189111328125,-0.1146535873413086,0.2473771572113037,-0.04744577035307884
1659029072881561000,6.23156103515625,-0.07023239135742188,-0.5379910469055176,-0.4336252808570862
1659029072891231000,6.24123095703125,-0.1585092544555664,0.05866581201553345,-0.6716791391372681
1659029072900900600,6.250900634765625,-0.105743408203125,-0.22094880044460297,-0.6751000285148621
1659029072910570500,6.260570556640625,0.1606292724609375,-0.5885567665100098,-0.4088546633720398
1659029072920240000,6.270240234375,-0.0951070785522461,0.1909513771533966,-0.4833582639694214
1659029072929910300,6.27991015625,0.18070602416992188,0.2097732126712799,-0.6474915742874146
1659029072939580000,6.289579833984375,-0.3366565704345703,0.25729113817214966,-0.7928921580314636
1659029072949249800,6.299249755859375,-0.05434608459472656,0.5330030918121338,-0.674227237701416
1659029072958919400,6.30891943359375,0.2548952102661133,0.42308005690574646,-0.8631605505943298
1659029072968589300,6.31858935546875,0.8712882995605469,0.3379044532775879,-0.25339990854263306
1659029072978259200,6.32825927734375,-0.9654855728149414,-0.037401169538497925,-0.15963341295719147
1659029072987929000,6.33792919921875,0.36138153076171875,-0.2857608497142792,0.48180583119392395
1659029072997598700,6.3475986328125,-0.4676847457885742,-0.02641892433166504,0.6579141616821289
1659029073007268600,6.3572685546875,0.2208423614501953,-0.47597983479499817,0.5084987282752991
1659029073016938500,6.3669384765625,-0.28826141357421875,-0.23227860033512115,0.6374251246452332
1659029073026608000,6.376608154296875,-0.12656497955322266,-0.39049023389816284,0.5024616122245789
1659029073036278000,6.386278076171875,0.30339908599853516,0.3524748980998993,0.1385313868522644
1659029073045948000,6.395947998046875,0.182037353515625,0.0012899935245513916,0.010965418070554733
1659029073055617500,6.405617431640625,-0.17293262481689453,-0.532745361328125,0.19590385258197784
1659029073065287400,6.415287353515625,-0.01271820068359375,0.10950231552124023,0.1689167022705078
1659029073074957300,6.424957275390625,0.051727294921875,0.06349080801010132,0.04205559194087982
1659029073084627000,6.434626953125,0.0288543701171875,0.3577364981174469,0.2562238872051239
1659029073094296800,6.444296875,0.4487438201904297,0.0759786069393158,-0.40024226903915405
1659029073103966700,6.453966796875,-0.7721586227416992,0.8341326713562012,-0.13370543718338013
1659029073113636600,6.46363671875,0.7680377960205078,0.48270925879478455,-0.2286960333585739
1659029073123306200,6.47330615234375,-0.6290168762207031,0.371115505695343,-0.015390435233712196
1659029073132976000,6.48297607421875,0.30352306365966797,0.46303465962409973,-0.18986457586288452
1659029073142645800,6.492645751953125,0.21215534210205078,0.16220256686210632,-0.004276121500879526
1659029073152316000,6.50231591796875,0.6258268356323242,0.7001081109046936,-0.017198454588651657
1659029073161985500,6.511985595703125,-0.8340721130371094,0.14272689819335938,-0.3617400527000427
1659029073171655400,6.521655517578125,-0.26032066345214844,0.5668855905532837,-0.005689655430614948
1659029073181325000,6.531324951171875,0.4398212432861328,0.4376772940158844,-0.13894091546535492
1659029073190995000,6.540994873046875,0.2301015853881836,-0.5456457138061523,0.016545284539461136
1659029073200664800,6.550664794921875,-0.3325777053833008,0.13364359736442566,0.6753230094909668
1659029073210334700,6.560334716796875,-0.013217926025390625,-0.33026790618896484,1.2252371311187744
1659029073220004400,6.57000439453125,-0.062218666076660156,-0.35280856490135193,1.2857753038406372
1659029073229674200,6.57967431640625,-0.25057315826416016,0.35656407475471497,0.8772960305213928
1659029073239344000,6.58934423828125,0.7241325378417969,0.09500741958618164,0.30172106623649597
1659029073249013800,6.599013671875,0.09596538543701172,0.3951529562473297,-0.09474919736385345
1659029073258683600,6.60868359375,0.22460556030273438,0.7082135677337646,-0.5698494911193848
1659029073268353500,6.618353515625,-0.6985721588134766,0.1290769875049591,-0.5787049531936646
1659029073278023200,6.628023193359375,-0.78302001953125,0.556788444519043,-0.07303176820278168
1659029073287693000,6.637693115234375,0.2975025177001953,0.13684740662574768,0.02955111302435398
1659029073297363000,6.647363037109375,0.6092920303344727,-0.6807932257652283,0.5826747417449951
1659029073307032600,6.657032470703125,-0.3374595642089844,0.16429781913757324,0.30908703804016113
1659029073316702500,6.666702392578125,0.1347360610961914,0.4944080412387848,0.5704556107521057
1659029073326372400,6.676372314453125,0.025635719299316406,0.5572159886360168,-0.2651855945587158
1659029073336042200,6.686042236328125,-0.31362438201904297,0.3612682819366455,-0.7911359071731567
1659029073345711900,6.6957119140625,0.05333423614501953,0.19193068146705627,-0.6259025931358337
1659029073355381800,6.7053818359375,0.528080940246582,0.41856247186660767,-1.0137892961502075
1659029073365051400,6.715051513671875,-0.20599365234375,-0.3380708694458008,-0.8183552622795105
1659029073374721300,6.72472119140625,-0.5098552703857422,-0.7618097066879272,-0.7954740524291992
1659029073384391200,6.73439111328125,-0.8237733840942383,-0.922131359577179,-0.3691681921482086
1659029073394061000,6.74406103515625,0.5517501831054688,-0.5067222714424133,-0.2041693776845932
1659029073403730700,6.753730712890625,-1.097886085510254,-1.2460670471191406,0.6085238456726074
1659029073413400600,6.763400634765625,0.45864009857177734,-0.5872948169708252,0.10101590305566788
1659029073423070500,6.773070556640625,0.3500661849975586,-0.9539213180541992,0.10972370207309723
1659029073432740400,6.782740234375,0.3454303741455078,-0.41757357120513916,-0.024693675339221954
1659029073442410000,6.792409912109375,0.5953302383422852,-0.03537106513977051,0.08586388826370239
1659029073452079900,6.802079833984375,0.3000459671020508,0.01056581735610962,0.18613070249557495
1659029073461749500,6.81174951171875,0.4685859680175781,-0.15420503914356232,0.09221034497022629
1659029073471419400,6.82141943359375,-1.017491340637207,0.4402776062488556,0.30090320110321045
1659029073481089300,6.83108935546875,0.5493974685668945,0.23044252395629883,-0.07387091219425201
1659029073490759200,6.84075927734375,-0.6633596420288086,-0.21950727701187134,0.6837140917778015
1659029073500428800,6.8504287109375,-0.2140789031982422,-0.19044508039951324,0.03583884239196777
1659029073510098700,6.8600986328125,0.2769012451171875,-0.18368199467658997,0.11967054754495621
1659029073519768600,6.8697685546875,-0.2274150848388672,-0.1628057360649109,-0.410565048456192
1659029073529438500,6.8794384765625,0.1442699432373047,-0.7816716432571411,-0.308971643447876
1659029073539108000,6.889108154296875,-0.29163646697998047,0.30673226714134216,-0.3760914206504822
1659029073548778000,6.898778076171875,0.24487972259521484,0.440268337726593,-0.1252567172050476
1659029073558447900,6.90844775390625,-0.1878223419189453,0.39073026180267334,-0.22406741976737976
1659029073568117500,6.918117431640625,0.38309669494628906,0.29122719168663025,-0.1069507971405983
1659029073577787400,6.927787353515625,-0.043974876403808594,0.12317731976509094,0.4755142331123352
1659029073587457300,6.937457275390625,0.09100914001464844,-0.14709219336509705,0.1655159741640091
1659029073597127000,6.947126953125,-0.0666961669921875,-0.35346519947052,0.15711230039596558
1659029073606796800,6.956796875,-0.055785179138183594,0.29588690400123596,-0.12208876758813858
1659029073616466700,6.966466796875,0.05890655517578125,0.25407806038856506,0.19565872848033905
1659029073626136300,6.97613623046875,0.06353569030761719,0.4233509600162506,0.3406045138835907
1659029073635806200,6.98580615234375,-0.018998146057128906,-0.23620885610580444,0.7749349474906921
1659029073645476000,6.99547607421875,-0.4772167205810547,0.7167253494262695,0.6257396340370178
1659029073655146000,7.00514599609375,0.4667787551879883,-0.02462288737297058,0.44191974401474
1659029073664815600,7.014815673828125,-0.10123825073242188,0.13906779885292053,0.5192954540252686
1659029073674485500,7.024485595703125,-0.2502117156982422,0.18647319078445435,0.014711178839206696
1659029073684155400,7.0341552734375,0.18129920959472656,1.0239245891571045,-0.6712958812713623
1659029073693825000,7.043824951171875,-0.07933616638183594,0.9311326146125793,-0.9916366338729858
1659029073703495000,7.053494873046875,0.0509185791015625,1.5364793539047241,-1.2569448947906494
1659029073713164800,7.063164794921875,-0.15554523468017578,2.140855312347412,-1.0872747898101807
1659029073722834400,7.07283447265625,0.20175933837890625,1.9898258447647095,-0.741885244846344
1659029073732504300,7.08250439453125,-0.4991645812988281,2.033783197402954,-0.5949668288230896
1659029073742174200,7.09217431640625,-0.060840606689453125,2.0662782192230225,-0.4225689768791199
1659029073751844000,7.101843994140625,-0.6323413848876953,1.5737686157226562,-0.9358258843421936
1659029073761513700,7.111513671875,0.29303550720214844,1.0530979633331299,-0.5240384340286255
1659029073771183600,7.12118359375,0.3366384506225586,0.49267953634262085,0.15929482877254486
1659029073780853500,7.130853515625,-0.4315299987792969,-0.5437436699867249,0.7769173383712769
1659029073790523400,7.1405234375,0.7417764663696289,-0.48617273569107056,1.1485720872879028
1659029073800193000,7.150193115234375,-0.02242755889892578,-0.6697020530700684,0.9070389866828918
1659029073809863000,7.15986279296875,-0.2692232131958008,-0.28185588121414185,0.38008004426956177
1659029073819532500,7.169532470703125,-0.26702404022216797,-0.4536265730857849,0.7201026082038879
1659029073829202400,7.179202392578125,-0.5609378814697266,-0.18310019373893738,0.19455291330814362
1659029073838872300,7.188872314453125,0.09955883026123047,-0.06323954463005066,0.26558583974838257
1659029073848542200,7.198542236328125,-0.043585777282714844,-0.14601537585258484,0.09365326166152954
1659029073858211800,7.2082119140625,-0.10892677307128906,0.439288467168808,-0.07020953297615051
1659029073867881700,7.2178818359375,-0.2038860321044922,0.01589551568031311,-0.11405888944864273
1659029073877551600,7.227551513671875,-0.13283443450927734,-0.08147826790809631,-0.2382817417383194
1659029073887221500,7.237221435546875,-0.2218017578125,-0.08020451664924622,0.036219608038663864
1659029073896891100,7.24689111328125,-0.10907745361328125,-0.6477837562561035,0.15234878659248352
1659029073906561000,7.25656103515625,-0.17928409576416016,-0.3020072877407074,0.14611300826072693
1659029073916230700,7.266230712890625,0.11232566833496094,-0.28958210349082947,0.23991066217422485
1659029073925900500,7.275900634765625,0.23386001586914062,-0.3158347010612488,-0.05604523420333862
1659029073935570400,7.2855703125,0.030584335327148438,-0.15587347745895386,-0.05051031708717346
1659029073945240300,7.295240234375,-0.2414560317993164,-0.782683253288269,-0.006362922489643097
1659029073954910000,7.304909912109375,0.1506948471069336,-0.8307715654373169,0.626367449760437
1659029073964579800,7.314579833984375,-0.19571876525878906,-0.8130671977996826,0.44632112979888916
1659029073974249700,7.324249755859375,0.28826141357421875,-0.8407208919525146,0.4039139747619629
1659029073983919600,7.333919677734375,0.5121593475341797,-0.5733895301818848,-0.1967563033103943
1659029073993589200,7.34358935546875,0.30356884002685547,0.09646466374397278,-0.8626660704612732
1659029074003259100,7.353259033203125,-0.051212310791015625,0.18691134452819824,-0.65524822473526
1659029074012929000,7.362928955078125,-0.41986560821533203,-0.09487983584403992,-0.7173794507980347
1659029074022598700,7.3725986328125,-0.01795482635498047,-0.27357131242752075,-0.1799727827310562
1659029074032268500,7.3822685546875,-0.22916221618652344,-0.405573308467865,0.2160423845052719
1659029074041938400,7.3919384765625,0.30857372283935547,-0.589754581451416,0.09818336367607117
1659029074051608000,7.401608154296875,-0.0978536605834961,-0.1844225823879242,0.14678072929382324
1659029074061278000,7.41127783203125,-0.04032135009765625,-0.04419556260108948,-0.14945313334465027
1659029074070947800,7.42094775390625,-0.06771659851074219,-0.05693244934082031,-0.4840385317802429
1659029074080617500,7.430617431640625,-0.2657804489135742,0.13727396726608276,-0.3758178949356079
1659029074090287400,7.440287353515625,0.207489013671875,-0.18286988139152527,-0.4180368483066559
1659029074099957200,7.449957275390625,0.04466438293457031,-0.3375285267829895,0.15501762926578522
1659029074109627100,7.459627197265625,-0.0975799560546875,-0.43915313482284546,0.1478656679391861
1659029074119296800,7.469296875,-0.08305931091308594,-0.3698640465736389,0.36995047330856323
1659029074128966700,7.478966552734375,-0.026900291442871094,-0.27612626552581787,0.07728171348571777
1659029074138636500,7.488636474609375,0.43854236602783203,-0.5664122700691223,0.3715806305408478
1659029074148306200,7.49830615234375,-0.40042686462402344,-0.12372449040412903,-0.08387649804353714
1659029074157976000,7.50797607421875,0.11364269256591797,0.061527788639068604,-0.5496695041656494
1659029074167646000,7.51764599609375,-0.2638711929321289,0.8111670613288879,-0.9479260444641113
1659029074177315600,7.527315673828125,0.32149791717529297,-0.010026723146438599,-0.6414762139320374
1659029074186985500,7.5369853515625,-0.4742593765258789,0.1328355073928833,-0.25431737303733826
1659029074196655400,7.5466552734375,0.1306924819946289,0.021841496229171753,0.033368151634931564
1659029074206325200,7.5563251953125,-0.14190387725830078,0.39461207389831543,-0.3063294291496277
1659029074215995000,7.565994873046875,0.04929924011230469,0.29707837104797363,-0.19743378460407257
1659029074225664800,7.575664794921875,-0.17298316955566406,0.5215883255004883,-0.5621965527534485
1659029074235334700,7.585334716796875,0.007518768310546875,0.14833569526672363,-0.4802001416683197
1659029074245004500,7.595004638671875,-0.2598123550415039,-0.08112093806266785,0.36465245485305786
1659029074254674200,7.604674072265625,0.33857154846191406,0.4352104365825653,1.0882320404052734
1659029074264344000,7.614343994140625,-0.30007457733154297,0.13868039846420288,0.15366098284721375
1659029074274013700,7.624013671875,-0.04341697692871094,0.9763504862785339,0.5351260900497437
1659029074283683600,7.63368359375,-0.29224586486816406,0.4332888126373291,0.06620600819587708
1659029074293353500,7.643353515625,0.20882701873779297,0.17896825075149536,-0.07138046622276306
1659029074303023400,7.6530234375,-0.5545921325683594,0.913015604019165,-0.5187650322914124
1659029074312693000,7.66269287109375,0.2509307861328125,0.38426634669303894,-0.06757684051990509
1659029074322363000,7.67236279296875,0.4031801223754883,-0.18349605798721313,-0.030735746026039124
1659029074332032800,7.68203271484375,-0.6554718017578125,-0.01957949995994568,0.4278855323791504
1659029074341702700,7.69170263671875,0.31294918060302734,-0.10710841417312622,0.6172772645950317
1659029074351372300,7.701372314453125,-0.15472126007080078,0.11613085865974426,0.1288478672504425
1659029074361042200,7.711042236328125,0.21485328674316406,0.519946813583374,-0.2965691387653351
1659029074370711800,7.7207119140625,-0.15709304809570312,0.6901078224182129,-0.35305818915367126
1659029074380381700,7.730381591796875,0.03365802764892578,0.18442100286483765,-0.37443748116493225
1659029074390051600,7.740051513671875,0.25183963775634766,0.42423731088638306,-0.24634821712970734
1659029074399721500,7.749721435546875,-0.02299213409423828,0.14954107999801636,-0.05629564821720123
1659029074409391000,7.75939111328125,0.036224365234375,0.29615455865859985,0.1506073772907257
1659029074419061000,7.76906103515625,-0.08084869384765625,0.21707141399383545,-0.06948390603065491
1659029074428731000,7.77873095703125,-0.0795431137084961,0.1790977120399475,0.3276187479496002
1659029074438400800,7.78840087890625,0.012426376342773438,0.027744770050048828,0.13340821862220764
1659029074448070400,7.7980703125,0.42410945892333984,0.13181063532829285,0.058363210409879684
1659029074457740300,7.807740234375,-0.5475835800170898,-0.34378910064697266,-0.18005451560020447
1659029074467410200,7.81741015625,0.3721456527709961,0.32542404532432556,0.19105687737464905
1659029074477080000,7.827080078125,-0.06452655792236328,-0.3165777921676636,0.2596527636051178
1659029074486749700,7.836749755859375,0.21429824829101562,-0.30997735261917114,0.625674843788147
1659029074496419600,7.846419677734375,-0.1482553482055664,-0.6843915581703186,0.5431498885154724
1659029074506089200,7.856089111328125,0.3062000274658203,0.3447721004486084,0.727114737033844
1659029074515759000,7.865759033203125,-0.8143386840820312,-0.6880929470062256,0.1262512505054474
1659029074525429000,7.875428955078125,0.9099588394165039,0.6434015035629272,-0.057383231818675995
1659029074535099000,7.885098876953125,-0.40726566314697266,-0.4351620674133301,-0.975889265537262
1659029074544768500,7.8947685546875,0.3101539611816406,0.02022916078567505,0.1294492483139038
1659029074554438400,7.9044384765625,-0.42317867279052734,-0.019079089164733887,-0.11564218997955322
1659029074564108300,7.9141083984375,-0.11382579803466797,-0.008499085903167725,0.5228384137153625
1659029074573778200,7.923778076171875,0.661285400390625,-0.5895842909812927,0.3086206316947937
1659029074583447800,7.93344775390625,-0.14246654510498047,-0.20623481273651123,0.04492424800992012
1659029074593117700,7.94311767578125,0.2458639144897461,0.09100961685180664,-0.045784641057252884
1659029074602787300,7.952787353515625,-0.46761417388916016,-0.005637824535369873,-0.5090774893760681
1659029074612457200,7.962457275390625,-0.062191009521484375,-0.4323386549949646,-0.5738233327865601
1659029074622127000,7.972127197265625,0.1365365982055664,-0.11929172277450562,-0.2803631126880646
1659029074631797000,7.981796875,0.2179727554321289,-0.18609124422073364,-0.6229276657104492
1659029074641466600,7.991466552734375,0.04270362854003906,-0.29517850279808044,-0.4189913868904114
1659029074651136500,8.001136474609375,0.016124725341796875,-0.4729520380496979,-0.32260632514953613
1659029074660806400,8.010806396484375,-0.33951377868652344,-0.38224899768829346,0.02649962343275547
1659029074670476300,8.020476318359375,0.11079692840576172,-0.39586421847343445,0.16592177748680115
1659029074680146000,8.03014599609375,0.05840587615966797,-0.5137609839439392,0.04971800744533539
1659029074689815800,8.03981591796875,0.12453460693359375,-0.5426346063613892,0.18102596700191498
1659029074699485700,8.049485595703125,-0.18933391571044922,-0.21882100403308868,-0.3018776774406433
1659029074709155600,8.059155517578125,-0.18981647491455078,-0.5195963382720947,-0.6194575428962708
1659029074718825200,8.0688251953125,-0.011527061462402344,0.13667121529579163,0.009055391885340214
1659029074728495000,8.0784951171875,0.3580780029296875,-0.009313881397247314,-0.1937745213508606
1659029074738164700,8.088164794921875,0.05094718933105469,-0.36942267417907715,-0.14266370236873627
1659029074747834600,8.097834716796875,0.03365802764892578,0.2372436821460724,0.06274223327636719
1659029074757504500,8.10750439453125,0.12124824523925781,-0.10938003659248352,0.24950766563415527
1659029074767174400,8.11717431640625,-0.14565086364746094,0.053142547607421875,0.36700278520584106
1659029074776844000,8.126843994140625,0.2213602066040039,-0.43288418650627136,0.5373226404190063
1659029074786514000,8.136513916015625,0.27059078216552734,0.039573609828948975,0.43010225892066956
1659029074796183800,8.146183837890625,0.10138797760009766,-0.25572091341018677,0.2139398157596588
1659029074805853700,8.155853759765625,-0.1521615982055664,-0.20658305287361145,-0.22574087977409363
1659029074815523300,8.1655234375,0.08553504943847656,-0.04889291524887085,-0.14542466402053833
1659029074825193200,8.175193115234375,-0.06415081024169922,-0.08501672744750977,-0.6285902857780457
1659029074834863000,8.184863037109375,0.12868595123291016,0.295166552066803,-0.7116348147392273
1659029074844532700,8.19453271484375,0.09588241577148438,-0.07975989580154419,-0.6763659715652466
1659029074854202600,8.20420263671875,-0.07649612426757812,-0.26169535517692566,-0.1287521868944168
1659029074863872500,8.21387255859375,-0.12710952758789062,-0.682327926158905,0.4250602424144745
1659029074873542100,8.223542236328125,0.12203025817871094,-0.8309931755065918,0.3107951283454895
1659029074883212000,8.2332119140625,-0.023572921752929688,-0.7170953154563904,0.2986219525337219
1659029074892882000,8.2428818359375,0.03438758850097656,-0.6614371538162231,0.0752933919429779
1659029074902551800,8.2525517578125,-0.00030612945556640625,-0.7150059342384338,0.02231597527861595
1659029074912221400,8.262221435546875,-0.2486562728881836,0.03282618522644043,-0.43876561522483826
1659029074921891300,8.271891357421875,0.1578226089477539,0.6376034021377563,-0.9680747985839844
1659029074931561200,8.281561279296875,-0.2942018508911133,-0.07838362455368042,-0.986534059047699
1659029074941231000,8.291231201171875,0.32598018646240234,-0.07781228423118591,-0.41576245427131653
1659029074950900700,8.300900634765625,-0.04065418243408203,-0.4819793701171875,0.20481052994728088
1659029074960570600,8.310570556640625,0.07055377960205078,-0.7344772815704346,0.7103228569030762
1659029074970240500,8.320240478515625,-0.06236076354980469,-0.5404689908027649,0.812637448310852
1659029074979910100,8.32991015625,0.14340686798095703,-0.10737043619155884,0.1463838815689087
1659029074989580000,8.339580078125,-0.09671401977539062,-0.5272054076194763,0.07237950712442398
1659029074999250000,8.34925,-0.05506420135498047,-0.12339301407337189,0.07502775639295578
1659029075008919600,8.35891943359375,0.33759021759033203,0.3433580994606018,-0.5259228944778442
1659029075018589400,8.36858935546875,-0.12920188903808594,0.35599175095558167,-0.3556344211101532
1659029075028259300,8.37825927734375,-0.28946399688720703,-0.17732685804367065,-0.2802177965641022
1659029075037929200,8.38792919921875,-0.0940847396850586,0.6127288341522217,-0.38706234097480774
1659029075047598800,8.397598876953126,0.3192863464355469,-0.040020644664764404,0.4626818895339966
1659029075057268700,8.407268798828126,0.17633342742919922,-0.48939868807792664,0.7617502212524414
1659029075066938600,8.416938720703126,-0.06305789947509766,0.15336653590202332,0.357708603143692
1659029075076608300,8.426608154296876,-0.2831840515136719,-0.39268776774406433,0.6375676989555359
1659029075086278100,8.436278076171876,0.1826801300048828,-0.10960188508033752,0.4629824757575989
1659029075095948000,8.445947998046876,0.4668092727661133,-0.19124551117420197,0.6325629949569702
1659029075105618000,8.455617919921876,-0.4644603729248047,0.22197136282920837,0.10056200623512268
1659029075115287600,8.46528759765625,-0.5368194580078125,0.6799530982971191,0.06026795879006386
1659029075124957400,8.47495751953125,0.016796112060546875,0.2772006094455719,0.5474690198898315
1659029075134627300,8.48462744140625,0.5412712097167969,1.4739673137664795,-0.5014546513557434
1659029075144297000,8.494296875,-0.22501468658447266,0.9112289547920227,-0.3698957860469818
1659029075153966800,8.503966796875,-0.29253196716308594,1.0434272289276123,-0.895816445350647
1659029075163636700,8.51363671875,-0.06864261627197266,1.2486127614974976,-0.23407794535160065
1659029075173306600,8.523306640625,0.8123283386230469,0.6445516347885132,-0.6398683190345764
1659029075182976300,8.532976318359376,-1.1492280960083008,0.5654252171516418,-0.39985719323158264
1659029075192646100,8.542646240234374,-0.2083749771118164,0.1263338327407837,-0.021157551556825638
1659029075202316000,8.55231591796875,0.14051437377929688,0.9602431654930115,0.3215855360031128
1659029075211985700,8.561985595703124,0.6569318771362305,0.23291513323783875,0.20338407158851624
1659029075221655600,8.571655517578124,0.040793418884277344,0.47684234380722046,0.05410873517394066
1659029075231325400,8.581325439453124,-0.21585559844970703,0.49577459692955017,-0.2601228356361389
1659029075240995300,8.590995361328124,-0.14850616455078125,-0.053662240505218506,0.1376364529132843
1659029075250665000,8.6006650390625,-0.5240926742553711,0.23733538389205933,0.10467278957366943
1659029075260334800,8.6103349609375,0.6694498062133789,0.4002392888069153,0.19276303052902222
1659029075270004700,8.620004638671874,-0.8728599548339844,-0.2008364200592041,0.589893639087677
1659029075279674600,8.629674560546874,0.3190879821777344,-0.03470814228057861,0.805069625377655
1659029075289344300,8.63934423828125,0.357635498046875,-0.08452805876731873,-0.15728265047073364
1659029075299014100,8.64901416015625,0.2826957702636719,-0.6352622509002686,0.5758729577064514
1659029075308683800,8.658683837890624,-0.20368385314941406,0.015005648136138916,0.16961970925331116
1659029075318353700,8.668353759765624,0.26468563079833984,-0.03168320655822754,0.17067715525627136
1659029075328023600,8.6780234375,-0.5749940872192383,-0.19738826155662537,-0.2571810483932495
1659029075337693400,8.687693359375,0.4647188186645508,-0.070336252450943,0.022173164412379265
1659029075347363000,8.697363037109374,-0.5436553955078125,0.5636148452758789,-0.5657044053077698
1659029075357033000,8.707032958984374,0.4756031036376953,-0.23924656212329865,-0.19978800415992737
1659029075366702800,8.716702880859375,0.19518280029296875,0.046912968158721924,-0.2858661115169525
1659029075376372700,8.726372802734375,-0.4115734100341797,-0.5888596773147583,0.06606950610876083
1659029075386042400,8.73604248046875,0.17663002014160156,0.014894992113113403,0.654138445854187
1659029075395712300,8.745712158203125,-0.3883066177368164,-0.5731125473976135,0.06414777040481567
1659029075405382100,8.755382080078125,-0.1582174301147461,0.23441556096076965,0.444766104221344
1659029075415052000,8.765052001953125,0.5713748931884766,-0.36940979957580566,0.2786726951599121
1659029075424721700,8.7747216796875,0.7585668563842773,0.3111031651496887,0.04239720106124878
1659029075434391600,8.7843916015625,-0.8664045333862305,-0.44434040784835815,0.0006232429295778275
1659029075444061200,8.794061279296875,-0.14345836639404297,-0.13375809788703918,0.060677193105220795
1659029075453731000,8.80373095703125,0.31397438049316406,0.30364590883255005,-0.48508504033088684
1659029075463401000,8.81340087890625,-0.5676050186157227,0.2902538776397705,-0.37833619117736816
1659029075473070800,8.82307080078125,0.30016422271728516,-0.39760953187942505,-0.08982188254594803
1659029075482740500,8.832740478515625,-0.5659103393554688,-0.05232444405555725,0.7681699991226196
1659029075492410400,8.842410400390625,-0.02995586395263672,-0.36660367250442505,0.10609069466590881
1659029075502080300,8.852080322265625,0.3388042449951172,0.36389902234077454,-0.13641583919525146
1659029075511750100,8.861750244140625,0.007388114929199219,0.5381002426147461,0.13680948317050934
1659029075521419800,8.871419677734375,-0.12640380859375,0.05003392696380615,-0.017236826941370964
1659029075531089700,8.881089599609375,-0.04016590118408203,0.40287700295448303,0.08803797513246536
1659029075540759600,8.890759521484375,0.604395866394043,0.23788082599639893,-0.3453764021396637
1659029075550429400,8.900429443359375,-0.028410911560058594,0.5919808149337769,-0.52928626537323
1659029075560099000,8.91009912109375,-0.5736989974975586,0.6740596890449524,-0.4601971507072449
1659029075569769000,8.91976904296875,0.40628528594970703,0.17770975828170776,-0.527515172958374
1659029075579438600,8.9294384765625,-0.2594633102416992,0.5926419496536255,-0.061565592885017395
1659029075589108500,8.9391083984375,-0.03334331512451172,0.22411292791366577,0.39012208580970764
1659029075598778400,8.9487783203125,-0.17165565490722656,0.6026390790939331,0.07114367932081223
1659029075608448300,8.9584482421875,0.2285938262939453,0.7160511016845703,0.00001729559153318405
1659029075618118000,8.968117919921875,0.03708648681640625,0.7006971836090088,0.17969655990600586
1659029075627787800,8.977787841796875,0.2852144241333008,0.5345402359962463,-0.3557963967323303
1659029075637457700,8.987457763671875,-0.4996004104614258,1.0102192163467407,-0.9319902658462524
1659029075647127600,8.99712744140625,0.14122962951660156,0.49042263627052307,-0.40038296580314636
1659029075656797200,9.006797119140625,0.016732215881347656,0.09981745481491089,-0.13177946209907532
1659029075666467000,9.016467041015625,0.0022945404052734375,-0.38286226987838745,0.1415673792362213
1659029075676137000,9.026136962890625,-0.009486198425292969,0.08280965685844421,-0.03510136902332306
1659029075685806600,9.035806640625,-0.28231143951416016,-0.352388858795166,0.3329763412475586
1659029075695476500,9.0454765625,-0.03599262237548828,0.34822726249694824,0.47497740387916565
1659029075705146400,9.055146484375,0.8364582061767578,-0.255195677280426,0.23816528916358948
1659029075714816300,9.064816162109375,-1.9283523559570312,0.9462378025054932,-0.2007545679807663
1659029075724486000,9.07448583984375,0.4653434753417969,0.35685041546821594,-0.419174462556839
1659029075734155800,9.08415576171875,-1.1937694549560547,0.5025179386138916,-0.2312171459197998
1659029075743825700,9.09382568359375,1.1650447845458984,-0.7735587954521179,0.03264623135328293
1659029075753495300,9.103495361328125,0.16217517852783203,-0.7985172271728516,-0.43695440888404846
1659029075763165200,9.113165283203125,-0.2823162078857422,-0.9240835309028625,0.50107741355896
1659029075772835000,9.1228349609375,0.21964645385742188,-0.6393009424209595,0.2747572958469391
1659029075782505000,9.1325048828125,0.5067329406738281,-0.7750228047370911,0.7211239337921143
1659029075792174600,9.142174560546875,-0.35021495819091797,-1.2371920347213745,0.375578910112381
1659029075801844500,9.151844482421875,0.011074066162109375,-0.6552445888519287,0.5909122228622437
1659029075811514400,9.161514404296875,-0.054594993591308594,-0.5316375494003296,0.22048011422157288
1659029075821184000,9.17118408203125,-0.27879810333251953,-0.2723408639431,0.029328469187021255
1659029075830854000,9.18085400390625,0.13243865966796875,-0.08639462292194366,0.17064568400382996
1659029075840523800,9.190523681640625,-0.034974098205566406,-0.1817772537469864,-0.0006828103214502335
1659029075850193700,9.200193603515626,0.27064990997314453,0.3922967314720154,0.1907956749200821
1659029075859863300,9.20986328125,-0.7337141036987305,0.030614346265792847,0.036029357463121414
1659029075869533200,9.219533203125,0.7384204864501953,0.7212882041931152,-0.09417936950922012
1659029075879203000,9.229203125,-0.4412965774536133,-0.04576107859611511,0.06770190596580505
1659029075888873000,9.238873046875,0.7329111099243164,0.3864624500274658,0.18810918927192688
1659029075898542600,9.24854248046875,-0.6329927444458008,0.13230252265930176,-0.2174711525440216
1659029075908212500,9.25821240234375,0.7171955108642578,0.21884503960609436,0.2604850232601166
1659029075917882000,9.267882080078126,-0.7202386856079102,-0.4455997347831726,0.2842239737510681
1659029075927552300,9.27755224609375,0.663609504699707,0.2407780885696411,0.06760485470294952
1659029075937222000,9.287221923828126,-0.12692737579345703,0.5487798452377319,-0.0774892121553421
1659029075946891800,9.296891845703126,-0.2983875274658203,0.08183467388153076,0.0478254035115242
1659029075956561400,9.3065615234375,0.4363679885864258,0.8337361216545105,-0.3708721399307251
1659029075966231300,9.316231201171876,0.11673641204833984,1.1352359056472778,-0.3497963547706604
1659029075975901200,9.325901123046876,-1.2260618209838867,0.95984947681427,-0.6548185348510742
1659029075985571000,9.335571044921876,0.8547677993774414,0.6048483848571777,-0.0912577360868454
1659029075995240700,9.34524072265625,0.9528684616088867,0.3701106309890747,0.6578316688537598
1659029076004910600,9.35491064453125,-0.7059555053710938,0.9347314834594727,0.009043853729963303
1659029076014580500,9.36458056640625,0.36627960205078125,0.22317638993263245,0.4001813530921936
1659029076024250400,9.37425048828125,-1.3864002227783203,-0.14815159142017365,0.11384759843349457
1659029076033920000,9.383919921875,3.266071319580078,0.4984716773033142,-0.2524726688861847
1659029076043590000,9.39358984375,-2.897794246673584,0.606303334236145,0.6905952095985413
1659029076053259500,9.403259521484374,-0.7035837173461914,0.13634872436523438,-0.17207303643226624
1659029076062929400,9.412929443359374,1.471426010131836,0.34123101830482483,-0.3544381558895111
1659029076072599300,9.422599365234374,0.38089752197265625,0.21942371129989624,-0.03498207777738571
1659029076082269200,9.432269287109374,-0.8590059280395508,-0.242911234498024,0.2065337896347046
1659029076091938800,9.441938720703124,-1.7642545700073242,-0.162068709731102,-0.301396906375885
1659029076101608700,9.451608642578124,2.2536821365356445,-0.7265081405639648,-0.004225790500640869
1659029076111278600,9.461278564453124,0.015318870544433594,-0.5766013860702515,0.01483062282204628
1659029076120948500,9.470948486328124,-0.02766895294189453,-0.7888578176498413,-0.15057143568992615
1659029076130618000,9.4806181640625,-0.3475055694580078,-0.600679337978363,0.5761197209358215
1659029076140288000,9.4902880859375,0.4410514831542969,-0.44941580295562744,-0.19118677079677582
1659029076149958000,9.4999580078125,-0.3392829895019531,-0.1370101273059845,-0.30321601033210754
1659029076159627800,9.509627685546874,0.19509410858154297,-0.05337119102478027,-0.5085705518722534
1659029076169297400,9.51929736328125,-0.10850811004638672,-0.004424482583999634,-0.37582361698150635
1659029076178967300,9.52896728515625,-0.0056247711181640625,0.055223435163497925,-0.4506606459617615
1659029076188637200,9.53863720703125,0.04816246032714844,-0.16513368487358093,-0.33359917998313904
1659029076198306800,9.548306884765625,0.3980550765991211,-0.1866847276687622,-0.6441558599472046
1659029076207976700,9.557976806640625,1.0297861099243164,0.12145024538040161,-0.7057528495788574
1659029076217646600,9.567646484375,-2.081951141357422,-0.3094640374183655,0.36764031648635864
1659029076227316500,9.57731640625,-0.5708599090576172,-0.4537174701690674,0.12381106615066528
1659029076236986000,9.586986083984375,1.6040315628051758,-0.5733193159103394,-0.2077644169330597
1659029076246656000,9.596656005859375,-0.5994787216186523,0.36552074551582336,0.0760733038187027
1659029076256326000,9.606325927734375,-0.3666086196899414,-0.025937765836715698,-0.5718772411346436
1659029076265995500,9.61599560546875,0.774144172668457,0.043576210737228394,-0.34574174880981445
1659029076275665400,9.62566552734375,-0.28397083282470703,0.578706681728363,0.31724420189857483
1659029076285335300,9.635335205078125,-0.5698280334472656,0.8664177656173706,-0.3150622844696045
1659029076295005000,9.6450048828125,0.2610740661621094,-0.4595789313316345,-0.0056974031031131744
1659029076304674800,9.6546748046875,0.034882545471191406,0.4822731912136078,-0.08182817697525024
1659029076314344700,9.6643447265625,-0.21706867218017578,0.4173083007335663,-0.4823610484600067
1659029076324014600,9.6740146484375,-0.03870868682861328,0.4090382158756256,-0.01958715170621872
1659029076333684200,9.683684326171875,0.47342967987060547,-0.10042047500610352,0.07634426653385162
1659029076343354000,9.69335400390625,-0.2986888885498047,-0.12918999791145325,0.42544612288475037
1659029076353024000,9.70302392578125,0.10669231414794922,-0.17354236543178558,-0.10960441827774048
1659029076362694000,9.71269384765625,0.49794483184814453,-1.0682817697525024,-0.27067887783050537
1659029076372363500,9.722363525390625,-0.5763120651245117,-1.0521217584609985,-0.040905438363552094
1659029076382033400,9.732033447265625,0.30471038818359375,-1.2065799236297607,-0.25821128487586975
1659029076391703300,9.741703369140625,-0.09122180938720703,-1.310365080833435,-0.7971275448799133
1659029076401373200,9.751373291015625,0.37808704376220703,-0.4021965265274048,-0.8453884720802307
1659029076411042800,9.761042724609375,-0.9430112838745117,-1.049586296081543,-0.8765137195587158
1659029076420712700,9.770712646484375,1.4080333709716797,-1.201722264289856,-0.22610116004943848
1659029076430382300,9.78038232421875,-0.8690500259399414,-1.3500434160232544,-0.0017981268465518951
1659029076440052200,9.79005224609375,0.9060335159301758,-1.494712233543396,0.4256775975227356
1659029076449722000,9.79972216796875,1.5694246292114258,-0.5133024454116821,0.6133112907409668
1659029076459392000,9.80939208984375,0.2765235900878906,-0.02699950337409973,0.20364603400230408
1659029076469061600,9.8190615234375,-0.734187126159668,-0.10711102187633514,-0.0685502141714096
1659029076478731500,9.8287314453125,-1.408036231994629,-0.02985900640487671,0.22007252275943756
1659029076488401400,9.8384013671875,-1.5821514129638672,0.10210992395877838,-0.024992376565933228
1659029076498071300,9.8480712890625,-0.5526962280273438,0.1490054577589035,-0.07748342305421829
1659029076507741000,9.857740966796875,0.09093189239501953,0.1729646623134613,0.07768507301807404
1659029076517410800,9.867410888671875,1.2817611694335938,0.2662551999092102,-0.010592713952064514
1659029076527080700,9.877080810546875,1.386958122253418,0.44108715653419495,-0.18128931522369385
1659029076536750600,9.88675048828125,0.3987407684326172,0.28236258029937744,-0.17503201961517334
1659029076546420200,9.896420166015625,-0.1775979995727539,0.15241746604442596,-0.014963269233703613
1659029076556090000,9.906090087890625,-0.5973081588745117,0.11886556446552277,0.05595239996910095
1659029076565760000,9.915760009765625,-0.8738679885864258,0.10168583691120148,0.030607372522354126
1659029076575429600,9.9254296875,-0.6746578216552734,0.1240793764591217,-0.00485663115978241
1659029076585099500,9.935099609375,-0.008089065551757812,0.15127913653850555,-0.013090580701828003
1659029076594769400,9.944769287109375,0.45504093170166016,0.21734751760959625,-0.012920215725898743
1659029076604439300,9.954439208984375,0.5576744079589844,0.27112922072410583,-0.0738828033208847
1659029076614109000,9.96410888671875,0.4905548095703125,0.27570074796676636,-0.09312444925308228
1659029076623778800,9.97377880859375,0.23148822784423828,0.19912955164909363,-0.07684533298015594
1659029076633448700,9.98344873046875,-0.19521331787109375,0.1713041067123413,0.0014417767524719238
1659029076643118600,9.99311865234375,-0.44539356231689453,0.15072940289974213,0.020351216197013855
1659029076652788200,10.002788330078126,-0.37264251708984375,0.13198773562908173,0.0016603171825408936
1659029076662458000,10.0124580078125,-0.19382286071777344,0.15495845675468445,-0.016166478395462036
1659029076672127700,10.022127685546875,0.00003719329833984375,0.18377040326595306,-0.01785595715045929
1659029076681797600,10.031797607421876,0.22321128845214844,0.20678244531154633,-0.02601780742406845
1659029076691467500,10.041467529296876,0.3001995086669922,0.23593372106552124,-0.05059666931629181
1659029076701137400,10.051137451171876,0.1776866912841797,0.22319413721561432,-0.05357497185468674
1659029076710807000,10.06080712890625,-0.011342048645019531,0.17617693543434143,-0.04701025038957596
1659029076720477000,10.070476806640626,-0.1676778793334961,0.1624525934457779,-0.019250214099884033
1659029076730146800,10.080146728515626,-0.1976795196533203,0.11278489232063293,0.02395860105752945
1659029076739816700,10.089816650390626,-4.552249908447266,-0.34271275997161865,0.033089425414800644
1659029076749486300,10.099486328125,5.333290100097656,1.0051469802856445,0.07038607448339462
1659029076759156200,10.10915625,0.6892900466918945,0.2935135066509247,-0.36460837721824646
1659029076768826000,10.118826171875,-2.391603469848633,-0.09048351645469666,0.299863338470459
1659029076778496000,10.12849609375,0.7634248733520508,0.27704161405563354,-0.012991532683372498
1659029076788165600,10.13816552734375,1.3541183471679688,0.43906643986701965,-0.16119909286499023
1659029076797835500,10.14783544921875,0.604640007019043,0.17056256532669067,-0.19524231553077698
