time,seconds_elapsed,z,y,x
1659029066692888000,0.04288818359375,9.7981538772583,0.3849702775478363,0.1355191320180893
1659029066702558000,0.052557861328125,9.799858093261719,0.34155768156051636,0.12850897014141083
1659029066712227600,0.0622275390625,9.800471305847168,0.3183325529098511,0.14082962274551392
1659029066721897500,0.0718974609375,9.800409317016602,0.3151439428329468,0.1518166959285736
1659029066731567400,0.0815673828125,9.800418853759766,0.31607067584991455,0.14923319220542908
1659029066741237200,0.0912373046875,9.800383567810059,0.31836986541748047,0.1466846913099289
1659029066750907000,0.100906982421875,9.800385475158691,0.31655219197273254,0.15045717358589172
1659029066760576800,0.11057666015625,9.80053997039795,0.3110774755477905,0.15174032747745514
1659029066770246700,0.12024658203125,9.800585746765137,0.30931130051612854,0.1524473875761032
1659029066779916300,0.129916259765625,9.800572395324707,0.31018510460853577,0.15154661238193512
1659029066789586200,0.139586181640625,9.800548553466797,0.3107491433620453,0.1518709510564804
1659029066799256000,0.149256103515625,9.800577163696289,0.309457004070282,0.1526809185743332
1659029066808925700,0.15892578125,9.800605773925781,0.3083668053150177,0.15306447446346283
1659029066818595600,0.168595703125,9.800619125366211,0.3080981373786926,0.1527734100818634
1659029066828265500,0.178265380859375,9.800639152526855,0.30724331736564636,0.15318043529987335
1659029066837935000,0.18793505859375,9.800634384155273,0.30696624517440796,0.15405775606632233
1659029066847605000,0.19760498046875,9.80064868927002,0.30618995428085327,0.15464136004447937
1659029066857275000,0.20727490234375,9.800661087036133,0.30623021721839905,0.15382589399814606
1659029066866944800,0.21694482421875,9.800655364990234,0.30635446310043335,0.15387725830078125
1659029066876614400,0.226614501953125,9.800660133361816,0.30573803186416626,0.1548529714345932
1659029066886284300,0.2362841796875,9.80068588256836,0.30513569712638855,0.1543785184621811
1659029066895954000,0.245953857421875,9.800714492797852,0.30832239985466003,0.1460314691066742
1659029066905623800,0.255623779296875,9.800714492797852,0.318679541349411,0.12169269472360611
1659029066915293700,0.265293701171875,9.800531387329102,0.3343420922756195,0.09061820805072784
1659029066924963600,0.274963623046875,9.800326347351074,0.34580516815185547,0.06639888882637024
1659029066934633200,0.28463330078125,9.800215721130371,0.3504762053489685,0.0575658455491066
1659029066944303000,0.29430322265625,9.80024528503418,0.3496204912662506,0.05779499188065529
1659029066953973000,0.303972900390625,9.800237655639648,0.34976303577423096,0.05832477658987045
1659029066963642600,0.313642578125,9.80023193359375,0.35039880871772766,0.05534030869603157
1659029066973312500,0.3233125,9.800210952758789,0.35157260298728943,0.051347922533750534
1659029066982982400,0.332982421875,9.800212860107422,0.35181644558906555,0.049356721341609955
1659029066992652000,0.342652099609375,9.800216674804688,0.35159724950790405,0.05020740628242493
1659029067002322000,0.352322021484375,9.80023193359375,0.3513570725917816,0.048897046595811844
1659029067011991800,0.36199169921875,9.800230979919434,0.3518877327442169,0.045233629643917084
1659029067021661400,0.371661376953125,9.80024528503418,0.35158851742744446,0.044302355498075485
1659029067031331300,0.381331298828125,9.800300598144531,0.34971827268600464,0.04681845009326935
1659029067041001200,0.391001220703125,9.800424575805664,0.34547871351242065,0.051875241100788116
1659029067050671000,0.400671142578125,9.800522804260254,0.341260701417923,0.06079042702913284
1659029067060340700,0.4103408203125,9.800582885742188,0.33674827218055725,0.07462875545024872
1659029067070010600,0.4200107421875,9.800627708435059,0.331477552652359,0.09060531854629517
1659029067079680300,0.42968017578125,9.800673484802246,0.32686296105384827,0.10175022482872009
1659029067089350100,0.43935009765625,9.800680160522461,0.32457634806632996,0.10829675197601318
1659029067099020000,0.44902001953125,9.800699234008789,0.3242602050304413,0.10743912309408188
1659029067108690000,0.45868994140625,9.800681114196777,0.3269196152687073,0.1008279025554657
1659029067118359600,0.468359619140625,9.800736427307129,0.3266301453113556,0.09623201191425323
1659029067128029400,0.478029541015625,9.800716400146484,0.32889196276664734,0.0903351679444313
1659029067137699300,0.48769921875,9.800795555114746,0.3246600031852722,0.09690029919147491
1659029067147369000,0.497368896484375,9.80078411102295,0.32005414366722107,0.11210791021585464
1659029067157038800,0.507038818359375,9.800824165344238,0.3177841901779175,0.1150972992181778
1659029067166708700,0.516708740234375,9.800843238830566,0.32139644026756287,0.10277627408504486
1659029067176378600,0.526378662109375,9.800814628601074,0.32711589336395264,0.08603255450725555
1659029067186048300,0.53604833984375,9.80074405670166,0.3330470025539398,0.0698775053024292
1659029067195718100,0.54571826171875,9.800700187683105,0.3366146683692932,0.05776536837220192
1659029067205387800,0.5553876953125,9.800658226013184,0.3392830789089203,0.04868515208363533
1659029067215057700,0.5650576171875,9.800613403320312,0.3411961793899536,0.04433229938149452
1659029067224727600,0.5747275390625,9.800565719604492,0.34273210167884827,0.04278931766748428
1659029067234397400,0.5843974609375,9.800559997558594,0.342894971370697,0.04284447431564331
1659029067244067000,0.594067138671875,9.800553321838379,0.34296298027038574,0.04374044016003609
1659029067253737000,0.603737060546875,9.800555229187012,0.3431187868118286,0.04196871817111969
1659029067263406800,0.61340673828125,9.800551414489746,0.3434672951698303,0.04002487659454346
1659029067273076500,0.623076416015625,9.800549507141113,0.3435206115245819,0.04027962312102318
1659029067282746400,0.632746337890625,9.800544738769531,0.3437059223651886,0.03974231332540512
1659029067292416000,0.642416015625,9.800529479980469,0.3442223072052002,0.03876648098230362
1659029067302086000,0.6520859375,9.800493240356445,0.3456275761127472,0.035719893872737885
1659029067311755800,0.661755859375,9.800436019897461,0.3476633131504059,0.03133430704474449
1659029067321425700,0.67142578125,9.800409317016602,0.3484327793121338,0.03091680072247982
1659029067331095300,0.68109521484375,9.800402641296387,0.3485519587993622,0.03192897140979767
1659029067340765200,0.69076513671875,9.800371170043945,0.34955650568008423,0.030312033370137215
1659029067350435000,0.70043505859375,9.800342559814453,0.35050567984580994,0.029019109904766083
1659029067360104700,0.710104736328125,9.800274848937988,0.3524512052536011,0.028069693595170975
1659029067369774600,0.719774658203125,9.799941062927246,0.3616122901439667,0.02759191393852234
1659029067379444500,0.729444580078125,9.799257278442383,0.38001471757888794,0.023306870833039284
1659029067389114000,0.739114013671875,9.798601150512695,0.397001713514328,0.013442509807646275
1659029067398784000,0.748783935546875,9.798229217529297,0.4062630832195282,0.0061722262762486935
1659029067408454000,0.758453857421875,9.7975492477417,0.4222710430622101,0.010145260021090508
1659029067418123500,0.76812353515625,9.79743480682373,0.4247981905937195,0.014150381088256836
1659029067427793400,0.77779345703125,9.79687213897705,0.43748217821121216,0.017229557037353516
1659029067437463300,0.78746337890625,9.796401023864746,0.44774681329727173,0.021031565964221954
1659029067447133200,0.79713330078125,9.795976638793945,0.45682868361473083,0.023166144266724586
1659029067456802800,0.806802734375,9.795370101928711,0.469845712184906,0.019306348636746407
1659029067466472700,0.81647265625,9.794673919677734,0.48433709144592285,0.013289086520671844
1659029067476142600,0.826142578125,9.793939590454102,0.49905872344970703,0.007973846979439259
1659029067485812200,0.835812255859375,9.793111801147461,0.5150929689407349,0.0037659439258277416
1659029067495482000,0.845482177734375,9.792479515075684,0.5270082950592041,0.0021515958942472935
1659029067505151700,0.85515185546875,9.792014122009277,0.5355765223503113,0.00026022226666100323
1659029067514821600,0.864821533203125,9.79150390625,0.5448048710823059,0.0033987730275839567
1659029067524491500,0.874491455078125,9.791169166564941,0.5507171750068665,0.009693792089819908
1659029067534161400,0.884161376953125,9.790935516357422,0.5546237826347351,0.018882321193814278
1659029067543831000,0.8938310546875,9.790687561035156,0.5587198734283447,0.025773614645004272
1659029067553501000,0.9035009765625,9.79050350189209,0.5617786049842834,0.028726769611239433
1659029067563170800,0.9131708984375,9.790302276611328,0.5653332471847534,0.027684440836310387
1659029067572840400,0.92284033203125,9.789978981018066,0.5710307359695435,0.024775974452495575
1659029067582510300,0.93251025390625,9.789193153381348,0.5845908522605896,0.018093975260853767
1659029067592180000,0.942179931640625,9.788736343383789,0.5922883152961731,0.015236521139740944
1659029067601849900,0.951849853515625,9.788616180419922,0.594327986240387,0.012531251646578312
1659029067611519700,0.961519775390625,9.788522720336914,0.5959288477897644,0.009233878925442696
1659029067621189600,0.971189697265625,9.788634300231934,0.5940402746200562,0.011081099510192871
1659029067630859300,0.980859375,9.789162635803223,0.5851377844810486,0.01782050170004368
1659029067640529200,0.990529052734375,9.789290428161621,0.5827327370643616,0.024174727499485016
1659029067650199000,1.000198974609375,9.789534568786621,0.5782470703125,0.03204072639346123
1659029067659868700,1.00986865234375,9.789790153503418,0.5734307765960693,0.039466049522161484
1659029067669538600,1.01953857421875,9.789877891540527,0.5718293786048889,0.041062965989112854
1659029067679208400,1.02920849609375,9.789843559265137,0.5723295211791992,0.04225816950201988
1659029067688878000,1.038878173828125,9.789913177490234,0.5711334347724915,0.04235623776912689
1659029067698548000,1.0485478515625,9.790035247802734,0.5687422156333923,0.04621355980634689
1659029067708217900,1.0582177734375,9.789862632751465,0.571423351764679,0.04941580444574356
1659029067717887500,1.067887451171875,9.78966999053955,0.5745705962181091,0.05103480443358421
1659029067727555800,1.077555908203125,9.789755821228027,0.57314532995224,0.05092944949865341
1659029067737225500,1.0872255859375,9.789840698242188,0.5715640783309937,0.052170027047395706
1659029067746895400,1.096895263671875,9.78955078125,0.5767523050308228,0.04949020966887474
1659029067756565200,1.106565185546875,9.789528846740723,0.5773674249649048,0.046400416642427444
1659029067766235100,1.116235107421875,9.789466857910156,0.5785849094390869,0.04426884278655052
1659029067775904800,1.12590478515625,9.789250373840332,0.5823105573654175,0.043212130665779114
1659029067785574700,1.13557470703125,9.78944206237793,0.5791885256767273,0.04183701425790787
1659029067795244500,1.14524462890625,9.789323806762695,0.5810558199882507,0.04358397796750069
1659029067804914200,1.1549140625,9.789199829101562,0.5830255150794983,0.04507298395037651
1659029067814584000,1.164583984375,9.789291381835938,0.581478476524353,0.045275673270225525
1659029067824253700,1.174253662109375,9.789152145385742,0.5838218927383423,0.04535965621471405
1659029067833923600,1.183923583984375,9.788895606994629,0.5880188941955566,0.04626112058758736
1659029067843593500,1.193593505859375,9.789026260375977,0.5856014490127563,0.049105338752269745
1659029067853263400,1.203263427734375,9.789443016052246,0.578493058681488,0.050431132316589355
1659029067862933000,1.21293310546875,9.789438247680664,0.5782861709594727,0.05355532839894295
1659029067872603000,1.222602783203125,9.7897310256958,0.5733615159988403,0.05313614755868912
1659029067882272800,1.232272705078125,9.790287971496582,0.563421368598938,0.05676315352320671
1659029067891942400,1.2419423828125,9.790478706359863,0.560768723487854,0.049521561712026596
1659029067901612300,1.2516123046875,9.790934562683105,0.5531988739967346,0.044280923902988434
1659029067911282000,1.261281982421875,9.791516304016113,0.5424374341964722,0.048426590859889984
1659029067920951800,1.270951904296875,9.791900634765625,0.5356157422065735,0.04663155972957611
1659029067930621700,1.28062158203125,9.791413307189941,0.5449231266975403,0.04093826934695244
1659029067940291600,1.29029150390625,9.791436195373535,0.5447109937667847,0.038389094173908234
1659029067949961200,1.299961181640625,9.791278839111328,0.547561764717102,0.03753333538770676
1659029067959631000,1.309631103515625,9.791326522827148,0.5471208691596985,0.03126000612974167
1659029067969301000,1.319301025390625,9.791726112365723,0.540278434753418,0.024090014398097992
1659029067978970600,1.328970703125,9.79271411895752,0.5214841365814209,0.03452533483505249
1659029067988640500,1.338640625,9.79300308227539,0.5162268280982971,0.03126141056418419
1659029067998310100,1.34831005859375,9.79304027557373,0.5153920650482178,0.033431559801101685
1659029068007980000,1.35797998046875,9.79301929473877,0.5161241888999939,0.027998751029372215
1659029068017650000,1.36764990234375,9.793181419372559,0.5126631855964661,0.03418906405568123
1659029068027319800,1.37731982421875,9.793597221374512,0.5036064982414246,0.04709859564900398
1659029068036989400,1.386989501953125,9.793498992919922,0.5051880478858948,0.05043281614780426
1659029068046659300,1.396659423828125,9.793578147888184,0.5034964680671692,0.05197544023394585
1659029068056329200,1.4063291015625,9.793478012084961,0.5046802163124084,0.058872874826192856
1659029068065998800,1.415998779296875,9.793362617492676,0.5064640045166016,0.06266423314809799
1659029068075668700,1.425668701171875,9.79301929473877,0.5132932066917419,0.0606682263314724
1659029068085338400,1.43533837890625,9.792999267578125,0.5136134624481201,0.06115983799099922
1659029068095008300,1.44500830078125,9.79271411895752,0.5177258849143982,0.07139478623867035
1659029068104678100,1.45467822265625,9.792404174804688,0.5226855278015137,0.077541284263134
1659029068114347800,1.46434765625,9.792201042175293,0.5251924395561218,0.08571985363960266
1659029068124017700,1.474017578125,9.791893005371094,0.5316014289855957,0.08136026561260223
1659029068133687600,1.4836875,9.791244506835938,0.5430960655212402,0.08342306315898895
1659029068143357400,1.493357421875,9.79080581665039,0.5505979061126709,0.08587248623371124
1659029068153027000,1.503027099609375,9.790108680725098,0.563144862651825,0.08387750387191772
1659029068162697000,1.512697021484375,9.790246963500977,0.5609203577041626,0.08260069787502289
1659029068172366600,1.52236669921875,9.78978157043457,0.5675768256187439,0.09180319309234619
1659029068182036500,1.532036376953125,9.789310455322266,0.5758866667747498,0.09021802991628647
1659029068191706400,1.541706298828125,9.789209365844727,0.5784311294555664,0.08473008126020432
1659029068201376000,1.5513759765625,9.788817405700684,0.5863345265388489,0.07516728341579437
1659029068211046000,1.5610458984375,9.789104461669922,0.5820956826210022,0.07061095535755157
1659029068220715800,1.5707158203125,9.788960456848145,0.5833476185798645,0.07964804023504257
1659029068230385700,1.5803857421875,9.789419174194336,0.5763052701950073,0.07437002658843994
1659029068240055300,1.59005517578125,9.789907455444336,0.5684078931808472,0.07089388370513916
1659029068249725200,1.59972509765625,9.789963722229004,0.5670055747032166,0.07412176579236984
1659029068259394800,1.609394775390625,9.790220260620117,0.5636702179908752,0.06512510776519775
1659029068269064700,1.619064697265625,9.790465354919434,0.5607215166091919,0.052487440407276154
1659029068278734600,1.628734619140625,9.790788650512695,0.5552996397018433,0.04987138882279396
1659029068288404200,1.638404296875,9.790675163269043,0.5582058429718018,0.03839333727955818
1659029068298074000,1.64807421875,9.790874481201172,0.554914653301239,0.035331252962350845
1659029068307744000,1.657743896484375,9.791096687316895,0.5506052374839783,0.040410615503787994
1659029068317414000,1.667413818359375,9.791306495666504,0.5466212034225464,0.043687041848897934
1659029068327083500,1.67708349609375,9.791199684143066,0.5472699999809265,0.057453591376543045
1659029068336753400,1.68675341796875,9.791467666625977,0.5417681336402893,0.06348345428705215
1659029068346423300,1.69642333984375,9.791516304016113,0.5412364602088928,0.06032239645719528
1659029068356093000,1.706093017578125,9.791274070739746,0.545058012008667,0.06528118997812271
1659029068365762800,1.7157626953125,9.791287422180176,0.5439562201499939,0.07201918214559555
1659029068375432400,1.725432373046875,9.791502952575684,0.5393109321594238,0.07741933315992355
1659029068385102300,1.735102294921875,9.791475296020508,0.5383822917938232,0.08675739914178848
1659029068394772200,1.744772216796875,9.791718482971191,0.533615231513977,0.08891888707876205
1659029068404441900,1.75444189453125,9.791749000549316,0.5322045087814331,0.0937824621796608
1659029068414111700,1.76411181640625,9.791823387145996,0.5307551026344299,0.09414886683225632
1659029068423781600,1.77378173828125,9.792215347290039,0.5242075324058533,0.09002332389354706
1659029068433451500,1.783451416015625,9.792367935180664,0.5226786136627197,0.08195946365594864
1659029068443121200,1.79312109375,9.792612075805664,0.5200625658035278,0.06842254102230072
1659029068452791000,1.802791015625,9.792701721191406,0.5190830230712891,0.06281118094921112
1659029068462460700,1.812460693359375,9.792665481567383,0.5203516483306885,0.05764784663915634
1659029068472130600,1.822130615234375,9.79282283782959,0.5178369879722595,0.053440868854522705
1659029068481800400,1.831800537109375,9.792943000793457,0.5152871608734131,0.05617934837937355
1659029068491470000,1.841469970703125,9.79321002960205,0.5097749829292297,0.05966644361615181
1659029068501140000,1.851139892578125,9.793509483337402,0.5027488470077515,0.06933367997407913
1659029068510809900,1.860809814453125,9.793724060058594,0.49817436933517456,0.07197321206331253
1659029068520479700,1.870479736328125,9.793632507324219,0.4999501705169678,0.07214421033859253
1659029068530149400,1.8801494140625,9.793943405151367,0.49357789754867554,0.07377372682094574
1659029068539819300,1.8898193359375,9.7938814163208,0.4956212639808655,0.0679548978805542
1659029068549489000,1.899489013671875,9.793702125549316,0.5007465481758118,0.05507143214344978
1659029068559158800,1.90915869140625,9.793585777282715,0.5041740536689758,0.04316691681742668
1659029068568828700,1.91882861328125,9.793692588806152,0.5022417902946472,0.041462983936071396
1659029068578498300,1.928498291015625,9.793761253356934,0.5006964802742004,0.04396852105855942
1659029068588168200,1.938168212890625,9.793410301208496,0.5073057413101196,0.04630409553647041
1659029068597838000,1.947838134765625,9.79339599609375,0.5066516995429993,0.05547146126627922
1659029068607507700,1.9575078125,9.79369831085205,0.5006529688835144,0.05676616355776787
1659029068617177600,1.967177490234375,9.793150901794434,0.5112574100494385,0.05658448860049248
1659029068626847500,1.976847412109375,9.792922973632812,0.5172421932220459,0.03867104649543762
1659029068636517000,1.98651708984375,9.792680740356445,0.5220667719841003,0.03501656651496887
1659029068646187000,1.99618701171875,9.792417526245117,0.5275090336799622,0.025986187160015106
1659029068655857000,2.00585693359375,9.792235374450684,0.5309545993804932,0.02468385174870491
1659029068665526500,2.015526611328125,9.792217254638672,0.5308398008346558,0.032777197659015656
1659029068675196400,2.025196533203125,9.79198169708252,0.5345889925956726,0.04124465957283974
1659029068684866300,2.0348662109375,9.791824340820312,0.5368948578834534,0.04812107980251312
1659029068694536000,2.044535888671875,9.791958808898926,0.534132182598114,0.051377199590206146
1659029068704205800,2.054205810546875,9.792335510253906,0.5263596773147583,0.05902937054634094
1659029068713875500,2.06387548828125,9.791925430297852,0.5336269736289978,0.061718203127384186
1659029068723545300,2.07354541015625,9.791884422302246,0.5337507128715515,0.06711013615131378
1659029068733215200,2.08321533203125,9.791476249694824,0.5376825928688049,0.09101532399654388
1659029068742885000,2.092885009765625,9.79166316986084,0.5373833775520325,0.07036939263343811
1659029068752554800,2.1025546875,9.791369438171387,0.5443978309631348,0.05561740696430206
1659029068762224600,2.112224609375,9.791694641113281,0.5369222164154053,0.06949861347675323
1659029068771894500,2.12189453125,9.791358947753906,0.5429282784461975,0.07011321932077408
1659029068781564200,2.131564208984375,9.791277885437012,0.5454733967781067,0.06101357191801071
1659029068791234000,2.141234130859375,9.791509628295898,0.5393885970115662,0.07611562311649323
1659029068800903700,2.150903564453125,9.791755676269531,0.5355384945869446,0.07147837430238724
1659029068810573600,2.160573486328125,9.791485786437988,0.54109787940979,0.06649045646190643
1659029068820243500,2.170243408203125,9.791868209838867,0.5340116620063782,0.06737910956144333
1659029068829913300,2.179913330078125,9.791972160339355,0.5306490063667297,0.07794784009456635
1659029068839583000,2.1895830078125,9.79218578338623,0.5276282429695129,0.07132379710674286
1659029068849252900,2.1992529296875,9.792325019836426,0.5248671174049377,0.07252026349306107
1659029068858922800,2.2089228515625,9.792598724365234,0.5189363956451416,0.07806376367807388
1659029068868592400,2.21859228515625,9.793067932128906,0.5093474984169006,0.08227818459272385
1659029068878262300,2.22826220703125,9.793169021606445,0.5068919062614441,0.08526916056871414
1659029068887932000,2.237931884765625,9.792991638183594,0.510912299156189,0.08165017515420914
1659029068897601800,2.247601806640625,9.793132781982422,0.5077046751976013,0.0846288874745369
1659029068907271700,2.257271728515625,9.793618202209473,0.4979667067527771,0.08639112859964371
1659029068916941300,2.26694140625,9.793798446655273,0.4938293993473053,0.0895744115114212
1659029068926611200,2.276611083984375,9.793871879577637,0.4921210706233978,0.09096983820199966
1659029068936281000,2.286281005859375,9.794144630432129,0.4866630733013153,0.09096148610115051
1659029068945951000,2.295950927734375,9.794166564941406,0.4857894778251648,0.09322305768728256
1659029068955620600,2.30562060546875,9.794119834899902,0.48801353573799133,0.08635988086462021
1659029068965290500,2.31529052734375,9.794066429138184,0.48901456594467163,0.08670493215322495
1659029068974960000,2.324960205078125,9.794022560119629,0.4904870092868805,0.08319620788097382
1659029068984630000,2.334630126953125,9.79384708404541,0.49405038356781006,0.0828198716044426
1659029068994300000,2.3442998046875,9.793740272521973,0.49664199352264404,0.07984152436256409
1659029069003969500,2.353969482421875,9.793527603149414,0.5005084276199341,0.08175648003816605
1659029069013639400,2.363639404296875,9.793466567993164,0.5020297169685364,0.0796637237071991
1659029069023309300,2.373309326171875,9.7932767868042,0.505850613117218,0.07886186242103577
1659029069032979200,2.382979248046875,9.793251037597656,0.5060954689979553,0.08061337471008301
1659029069042648800,2.39264892578125,9.793235778808594,0.5064055919647217,0.08046328276395798
1659029069052318700,2.402318603515625,9.793160438537598,0.5081357955932617,0.07865646481513977
1659029069061988600,2.411988525390625,9.793076515197754,0.5094611644744873,0.080525703728199
1659029069071658200,2.421658203125,9.793088912963867,0.5095812082290649,0.07822535932064056
1659029069081328000,2.431328125,9.792984962463379,0.5117299556732178,0.0772404596209526
1659029069090997800,2.440997802734375,9.792977333068848,0.5122502446174622,0.07475609332323074
1659029069100667600,2.450667724609375,9.792903900146484,0.5138765573501587,0.07306947559118271
1659029069110337500,2.460337646484375,9.792795181274414,0.5165058374404907,0.06914088875055313
1659029069120007200,2.470007080078125,9.79265308380127,0.5198612213134766,0.06388090550899506
1659029069129677000,2.479677001953125,9.792678833007812,0.5190762281417847,0.06630686670541763
1659029069139347000,2.489346923828125,9.792704582214355,0.5183866024017334,0.06774848699569702
1659029069149016800,2.499016845703125,9.792755126953125,0.5171430110931396,0.0699068084359169
1659029069158686500,2.5086865234375,9.792736053466797,0.5171506404876709,0.0724613219499588
1659029069168356400,2.5183564453125,9.79276180267334,0.5164622068405151,0.07395650446414948
1659029069178026000,2.52802587890625,9.792695999145508,0.517708957195282,0.07395391911268234
1659029069187695900,2.53769580078125,9.792512893676758,0.521445095539093,0.07197907567024231
1659029069197365800,2.54736572265625,9.792333602905273,0.525117039680481,0.06959372758865356
1659029069207035400,2.557035400390625,9.792181015014648,0.5284175276756287,0.06597604602575302
1659029069216705300,2.566705322265625,9.791975021362305,0.5322808027267456,0.06550739705562592
1659029069226375200,2.576375244140625,9.791853904724121,0.5346947312355042,0.06380299478769302
1659029069236044800,2.586044921875,9.791776657104492,0.53597491979599,0.06492894887924194
1659029069245714700,2.595714599609375,9.791707992553711,0.5365901589393616,0.07005858421325684
1659029069255384600,2.605384521484375,9.791840553283691,0.5334128737449646,0.07575544714927673
1659029069265054200,2.61505419921875,9.791463851928711,0.5409647226333618,0.07056201249361038
1659029069274724000,2.62472412109375,9.79149341583252,0.5399366021156311,0.07421056181192398
1659029069284394000,2.63439404296875,9.79142951965332,0.5402578115463257,0.08024261891841888
1659029069294063600,2.644063720703125,9.79124927520752,0.5428017973899841,0.08483045548200607
1659029069303733500,2.6537333984375,9.791263580322266,0.5427615642547607,0.08338671177625656
1659029069313403400,2.6634033203125,9.791365623474121,0.5405910015106201,0.08558598160743713
1659029069323073000,2.673072998046875,9.791584014892578,0.5358609557151794,0.09012588858604431
1659029069332743000,2.682742919921875,9.79175090789795,0.5323500037193298,0.09269805252552032
1659029069342412500,2.69241259765625,9.791996955871582,0.5275757908821106,0.0940847396850586
1659029069352082400,2.70208251953125,9.792299270629883,0.5216254591941833,0.0957508459687233
1659029069361752300,2.71175244140625,9.792692184448242,0.5153740644454956,0.08918213844299316
1659029069371422200,2.721422119140625,9.793379783630371,0.5036507844924927,0.08017780631780624
1659029069381091800,2.731091796875,9.793245315551758,0.506977915763855,0.07550248503684998
1659029069390761700,2.74076171875,9.793121337890625,0.5097435712814331,0.0729980319738388
1659029069400431600,2.750431640625,9.793246269226074,0.5069685578346252,0.0755184069275856
1659029069410101200,2.760101318359375,9.793149948120117,0.5090579390525818,0.07386548072099686
1659029069419771100,2.769771240234375,9.792869567871094,0.514764666557312,0.07151800394058228
1659029069429440800,2.779440673828125,9.79282283782959,0.5159841179847717,0.06904599070549011
1659029069439110700,2.789110595703125,9.792854309082031,0.5154794454574585,0.06833086907863617
1659029069448780500,2.798780517578125,9.792946815490723,0.5146033763885498,0.06131640449166298
1659029069458450400,2.808450439453125,9.793082237243652,0.5117571353912354,0.06361237168312073
1659029069468120000,2.8181201171875,9.793373107910156,0.5059146881103516,0.06535114347934723
1659029069477790000,2.8277900390625,9.793654441833496,0.5000986456871033,0.06789055466651917
1659029069487459800,2.8374599609375,9.79423999786377,0.48700934648513794,0.07800976186990738
1659029069497129500,2.84712939453125,9.794547080993652,0.47968780994415283,0.08453702181577682
1659029069506799400,2.85679931640625,9.795076370239258,0.4687577188014984,0.08439404517412186
1659029069516469000,2.866468994140625,9.795546531677246,0.45898231863975525,0.08361374586820602
1659029069526139000,2.876138916015625,9.795821189880371,0.45386847853660583,0.07913988828659058
1659029069535808800,2.885808837890625,9.796157836914062,0.44662144780158997,0.07881917804479599
1659029069545478400,2.895478515625,9.796367645263672,0.4405563771724701,0.08650441467761993
1659029069555148300,2.905148193359375,9.796817779541016,0.42813605070114136,0.09722501039505005
1659029069564818200,2.914818115234375,9.796971321105957,0.4208875596523285,0.11221995949745178
1659029069574488000,2.924488037109375,9.797140121459961,0.41596972942352295,0.11573845893144608
1659029069584157700,2.93415771484375,9.797187805175781,0.41395390033721924,0.1189681887626648
1659029069593827600,2.94382763671875,9.797287940979004,0.41188138723373413,0.11786586046218872
1659029069603497200,2.953497314453125,9.797282218933105,0.4134301245212555,0.11278532445430756
1659029069613167000,2.9631669921875,9.797201156616211,0.4155533015727997,0.1120043694972992
1659029069622837000,2.9728369140625,9.797298431396484,0.41444259881973267,0.10751601308584213
1659029069632506600,2.982506591796875,9.79744815826416,0.4119413495063782,0.10342925786972046
1659029069642176500,2.992176513671875,9.79735279083252,0.4149838984012604,0.10025422275066376
1659029069651846400,3.001846435546875,9.79742431640625,0.41408324241638184,0.09702639281749725
1659029069661516000,3.01151611328125,9.797661781311035,0.4090212881565094,0.094363734126091
1659029069671186000,3.02118603515625,9.797971725463867,0.40263631939888,0.08952758461236954
1659029069680855800,3.030855712890625,9.798240661621094,0.3965737521648407,0.08717887103557587
1659029069690525700,3.040525634765625,9.798613548278809,0.3878937065601349,0.08429469168186188
1659029069700195300,3.0501953125,9.799027442932129,0.3786843717098236,0.0776996910572052
1659029069709865200,3.059865234375,9.799253463745117,0.37365955114364624,0.07338350266218185
1659029069719534800,3.069534912109375,9.799322128295898,0.37375742197036743,0.0631585344672203
1659029069729204700,3.079204833984375,9.799381256103516,0.37370267510414124,0.053424034267663956
1659029069738874600,3.08887451171875,9.799199104309082,0.37892377376556396,0.04993540421128273
1659029069748544300,3.098544189453125,9.799132347106934,0.38065552711486816,0.049844056367874146
1659029069758214100,3.108214111328125,9.798970222473145,0.38539963960647583,0.04516024887561798
1659029069767883800,3.1178837890625,9.798775672912598,0.39046502113342285,0.04396359995007515
1659029069777554000,3.127553955078125,9.798784255981445,0.3904488980770111,0.04186195507645607
1659029069787223600,3.1372236328125,9.798521995544434,0.39709916710853577,0.04070118069648743
1659029069796893400,3.1468935546875,9.798219680786133,0.40480664372444153,0.03767789527773857
1659029069806563000,3.15656298828125,9.798065185546875,0.4085826277732849,0.036925673484802246
1659029069816233000,3.16623291015625,9.797969818115234,0.4113997220993042,0.03050224669277668
1659029069825902800,3.17590283203125,9.797539710998535,0.4217766225337982,0.02628140337765217
1659029069835572500,3.185572509765625,9.797076225280762,0.43268612027168274,0.021530738100409508
1659029069845242400,3.195242431640625,9.797101020812988,0.43207111954689026,0.022533077746629715
1659029069854912300,3.204912353515625,9.796707153320312,0.44114503264427185,0.017522821202874184
1659029069864582000,3.214581787109375,9.796664237976074,0.44209232926368713,0.017521020025014877
1659029069874251800,3.224251708984375,9.796639442443848,0.44257989525794983,0.019243309274315834
1659029069883921700,3.233921630859375,9.796577453613281,0.4438963532447815,0.020425844937562943
1659029069893591300,3.24359130859375,9.796446800231934,0.4466805160045624,0.022094469517469406
1659029069903261200,3.25326123046875,9.796467781066895,0.4461313784122467,0.024228794500231743
1659029069912931000,3.26293115234375,9.796125411987305,0.45298391580581665,0.03350566700100899
1659029069922600700,3.2726005859375,9.796086311340332,0.45290300250053406,0.04424681514501572
1659029069932270600,3.2822705078125,9.79582691192627,0.4577837884426117,0.05087258294224739
1659029069941940500,3.2919404296875,9.79563045501709,0.4609869122505188,0.05919620022177696
1659029069951610000,3.301610107421875,9.795427322387695,0.46370625495910645,0.07065396755933762
1659029069961280000,3.311280029296875,9.794883728027344,0.47421589493751526,0.07584463059902191
1659029069970949600,3.32094970703125,9.794095993041992,0.48918265104293823,0.08230733871459961
1659029069980619500,3.33061962890625,9.7935152053833,0.49968191981315613,0.08806642889976501
1659029069990289400,3.340289306640625,9.79310417175293,0.5067511796951294,0.09333939850330353
1659029069999959300,3.349959228515625,9.792991638183594,0.5074449181556702,0.10098151117563248
1659029070009629000,3.35962890625,9.792423248291016,0.5182992815971375,0.10102792084217072
1659029070019298800,3.369298828125,9.792009353637695,0.5265811681747437,0.09820583462715149
1659029070028968700,3.37896875,9.791924476623535,0.5287216305732727,0.095143161714077
1659029070038638300,3.388638427734375,9.791594505310059,0.5361700057983398,0.08712548762559891
1659029070048308200,3.39830810546875,9.791769027709961,0.5338642597198486,0.08144130557775497
1659029070057977900,3.407977783203125,9.792162895202637,0.5264502167701721,0.0823589563369751
1659029070067647700,3.417647705078125,9.792750358581543,0.5154427886009216,0.08220599591732025
1659029070077317600,3.427317626953125,9.792929649353027,0.5107452869415283,0.08970029652118683
1659029070086987500,3.436987548828125,9.792708396911621,0.5147892236709595,0.09080337733030319
1659029070096657200,3.4466572265625,9.793267250061035,0.5034839510917664,0.09384400397539139
1659029070106327000,3.4563271484375,9.793268203735352,0.5031704306602478,0.09544041752815247
1659029070115997000,3.465996826171875,9.793862342834473,0.49249687790870667,0.08996155858039856
1659029070125666600,3.47566650390625,9.794116020202637,0.48709186911582947,0.09182699024677277
1659029070135336400,3.48533642578125,9.794807434082031,0.47361457347869873,0.0884755477309227
1659029070145006000,3.495006103515625,9.795538902282715,0.4569791555404663,0.09471160173416138
1659029070154676000,3.504676025390625,9.795763969421387,0.4523710608482361,0.09356780350208282
1659029070164345900,3.514345947265625,9.795936584472656,0.4491117596626282,0.09125912189483643
1659029070174015500,3.524015380859375,9.796110153198242,0.44593003392219543,0.0881347581744194
1659029070183685400,3.533685302734375,9.796457290649414,0.43877649307250977,0.08527462184429169
1659029070193355300,3.543355224609375,9.796481132507324,0.4388003945350647,0.08241347223520279
1659029070203025200,3.553025146484375,9.796549797058105,0.43899354338645935,0.07266745716333389
1659029070212694800,3.56269482421875,9.796977043151855,0.42940235137939453,0.07239726185798645
1659029070222364700,3.57236474609375,9.797199249267578,0.4241405427455902,0.07324628531932831
1659029070232034300,3.582034423828125,9.797554016113281,0.4155002236366272,0.07541485130786896
1659029070241704200,3.5917041015625,9.79817008972168,0.40002769231796265,0.07889773696660995
1659029070251374000,3.6013740234375,9.798707008361816,0.387159526348114,0.07635541260242462
1659029070261043700,3.611043701171875,9.799066543579102,0.37824755907058716,0.07482385635375977
1659029070270713600,3.620713623046875,9.799466133117676,0.3693038821220398,0.06687939167022705
1659029070280383500,3.630383544921875,9.799566268920898,0.36676278710365295,0.06614852696657181
1659029070290053400,3.640053466796875,9.79995059967041,0.35728147625923157,0.06094484031200409
1659029070299723000,3.649722900390625,9.800067901611328,0.3534819185733795,0.06415596604347229
1659029070309393000,3.659392822265625,9.800408363342285,0.3435972034931183,0.0657510980963707
1659029070319062500,3.6690625,9.800634384155273,0.3364482522010803,0.06889155507087708
1659029070328732400,3.678732421875,9.800931930541992,0.328075110912323,0.06688299030065536
1659029070338402300,3.68840234375,9.801308631896973,0.31764641404151917,0.06199333816766739
1659029070348072000,3.698072021484375,9.801392555236816,0.31460049748420715,0.06429733335971832
1659029070357741800,3.707741943359375,9.801637649536133,0.3081423044204712,0.057916853576898575
1659029070367411700,3.71741162109375,9.80176067352295,0.3054008185863495,0.05098162963986397
1659029070377081600,3.72708154296875,9.80182933807373,0.3029490113258362,0.05227832496166229
1659029070386751200,3.736751220703125,9.801774024963379,0.3036745488643646,0.058189015835523605
1659029070396421000,3.746421142578125,9.801753044128418,0.30213654041290283,0.06893859803676605
1659029070406091000,3.756091064453125,9.801257133483887,0.3177981674671173,0.06880499422550201
1659029070415760600,3.7657607421875,9.800832748413086,0.3294781744480133,0.07421573251485825
1659029070425430500,3.775430419921875,9.800575256347656,0.3347194790840149,0.0840534046292305
1659029070435100200,3.78510009765625,9.800492286682129,0.33843785524368286,0.07869639992713928
1659029070444770000,3.79477001953125,9.800446510314941,0.3388785719871521,0.08237677067518234
1659029070454440000,3.80443994140625,9.800389289855957,0.341606467962265,0.07796864956617355
1659029070464109600,3.814109619140625,9.80045223236084,0.33868327736854553,0.08262389153242111
1659029070473779500,3.823779541015625,9.800619125366211,0.33366888761520386,0.08313778042793274
1659029070483449300,3.833449462890625,9.80065631866455,0.33241522312164307,0.08374569565057755
1659029070493119200,3.843119140625,9.800777435302734,0.3300434947013855,0.0788392722606659
1659029070502788900,3.852788818359375,9.800895690917969,0.32490089535713196,0.08525162935256958
1659029070512458800,3.862458740234375,9.80100154876709,0.32186388969421387,0.08463466167449951
1659029070522128400,3.87212841796875,9.800992965698242,0.3221967816352844,0.08430112153291702
1659029070531798300,3.88179833984375,9.801100730895996,0.3193618953227997,0.08256412297487259
1659029070541468200,3.89146826171875,9.801209449768066,0.3157275915145874,0.08365597575902939
1659029070551137800,3.9011376953125,9.801328659057617,0.31239765882492065,0.08216381818056107
1659029070560807700,3.9108076171875,9.801397323608398,0.3103386163711548,0.08188815414905548
1659029070570477600,3.9204775390625,9.801492691040039,0.3073796331882477,0.08162710070610046
1659029070580147500,3.9301474609375,9.801487922668457,0.3078736364841461,0.08031944185495377
1659029070589817000,3.939817138671875,9.801600456237793,0.3037247359752655,0.08227945864200592
1659029070599487000,3.949487060546875,9.801657676696777,0.30142107605934143,0.08390422910451889
1659029070609156600,3.959156494140625,9.801776885986328,0.2983798682689667,0.08070749789476395
1659029070618826500,3.968826416015625,9.80185604095459,0.2955722212791443,0.08139903843402863
1659029070628496400,3.978496337890625,9.801817893981934,0.29793140292167664,0.07740689814090729
1659029070638166000,3.988166015625,9.801846504211426,0.29868224263191223,0.07056174427270889
1659029070647836000,3.9978359375,9.801876068115234,0.2970122992992401,0.07355844974517822
1659029070657505800,4.007505859375,9.80150032043457,0.3082351088523865,0.07730592042207718
1659029070667175700,4.01717578125,9.801905632019043,0.2988455593585968,0.06097971647977829
1659029070676845300,4.02684521484375,9.801857948303223,0.29631778597831726,0.07843741029500961
1659029070686515200,4.03651513671875,9.801590919494629,0.30472612380981445,0.07963333278894424
1659029070696184800,4.046184814453125,9.801471710205078,0.3115212917327881,0.06715302169322968
1659029070705854700,4.055854736328125,9.801790237426758,0.30098453164100647,0.06856217980384827
1659029070715524600,4.065524658203125,9.801275253295898,0.3126426935195923,0.08743032068014145
1659029070725194200,4.0751943359375,9.801684379577637,0.3062964081764221,0.059640347957611084
1659029070734864100,4.084864013671875,9.801321983337402,0.31562232971191406,0.0697624608874321
1659029070744534000,4.094533935546875,9.801053047180176,0.3221241533756256,0.07736071199178696
1659029070754204000,4.104203857421875,9.801559448242188,0.31100133061408997,0.055742401629686356
1659029070763873500,4.11387353515625,9.800436019897461,0.33957019448280334,0.08082955330610275
1659029070773543400,4.12354345703125,9.800922393798828,0.32969456911087036,0.06001575291156769
1659029070783213000,4.133213134765625,9.80009651184082,0.3507664203643799,0.07391591370105743
1659029070792883000,4.142883056640625,9.80058479309082,0.3382677435874939,0.0670834481716156
1659029070802552800,4.152552734375,9.799725532531738,0.36017313599586487,0.07762785255908966
1659029070812222500,4.162222412109375,9.799898147583008,0.3574742078781128,0.06777895241975784
1659029070821892400,4.171892333984375,9.799490928649902,0.36775797605514526,0.07147680968046188
1659029070831562200,4.181562255859375,9.799187660217285,0.37540891766548157,0.07334175705909729
1659029070841232100,4.191232177734375,9.79919147491455,0.3774099349975586,0.061703890562057495
1659029070850901800,4.20090185546875,9.79861831665039,0.39245718717575073,0.05867880582809448
1659029070860571600,4.210571533203125,9.798055648803711,0.40632227063179016,0.05831163376569748
1659029070870241300,4.2202412109375,9.798081398010254,0.407593697309494,0.04308922961354256
1659029070879911200,4.2299111328125,9.797921180725098,0.4116959273815155,0.04031366482377052
1659029070889581000,4.2395810546875,9.797451972961426,0.4236814081668854,0.028683070093393326
1659029070899250700,4.249250732421875,9.797104835510254,0.43227413296699524,0.01651407591998577
1659029070908920600,4.258920654296875,9.797026634216309,0.43422767519950867,0.009972726926207542
1659029070918590500,4.268590576171875,9.797150611877441,0.4315347969532013,0.0030874062795192003
1659029070928260400,4.27826025390625,9.796932220458984,0.4364388883113861,-0.0030960787553340197
1659029070937930000,4.287929931640625,9.79611587524414,0.45442432165145874,0.0005722263013012707
1659029070947600000,4.297599853515625,9.795637130737305,0.46458888053894043,-0.005751559045165777
1659029070957269500,4.30726953125,9.795515060424805,0.4671335518360138,-0.0068112583830952644
1659029070966939400,4.316939453125,9.795384407043457,0.46983659267425537,-0.009597845375537872
1659029070976609300,4.326609375,9.794693946838379,0.48409682512283325,-0.00254864152520895
1659029070986279000,4.33627880859375,9.794045448303223,0.4969536364078522,0.010213437490165234
1659029070995948800,4.34594873046875,9.793478965759277,0.5079700946807861,0.010222895070910454
1659029071005618700,4.35561865234375,9.793413162231445,0.5093486309051514,0.004058917053043842
1659029071015288600,4.36528857421875,9.79282283782959,0.520563542842865,0.005882361438125372
1659029071024958200,4.374958251953125,9.79157543182373,0.5433828830718994,0.012825052253901958
1659029071034628000,4.384628173828125,9.790753364562988,0.5578259229660034,0.01887834630906582
1659029071044298000,4.394298095703125,9.791428565979004,0.5461318492889404,0.006263227201998234
1659029071053967600,4.403967529296875,9.79117202758789,0.5507388114929199,0.005193361081182957
1659029071063637500,4.413637451171875,9.790303230285645,0.5655348300933838,0.023321855813264847
1659029071073307100,4.42330712890625,9.790197372436523,0.5675227642059326,0.018728798255324364
1659029071082977000,4.43297705078125,9.790338516235352,0.5651665925979614,0.015775468200445175
1659029071092647000,4.44264697265625,9.788960456848145,0.5880222916603088,0.029468609020113945
1659029071102316800,4.45231689453125,9.788538932800293,0.5952643752098083,0.023651747032999992
1659029071111986400,4.461986328125,9.788498878479004,0.595909833908081,0.023686867207288742
1659029071121656300,4.47165625,9.788034439086914,0.603379487991333,0.026471298187971115
1659029071131326200,4.481326171875,9.788049697875977,0.6032564640045166,0.023737726733088493
1659029071140995800,4.490995849609375,9.788496017456055,0.5958881378173828,0.02568819746375084
1659029071150665700,4.500665771484375,9.787928581237793,0.6045924425125122,0.03603321686387062
1659029071160335600,4.510335693359375,9.787964820861816,0.6041978597640991,0.032688334584236145
1659029071170005200,4.520005126953125,9.787718772888184,0.6081167459487915,0.03393445536494255
1659029071179675100,4.529675048828125,9.786587715148926,0.625381588935852,0.04458492994308472
1659029071189345000,4.539344970703125,9.786520957946777,0.6269053816795349,0.03709659352898598
1659029071199014700,4.5490146484375,9.786389350891113,0.6288365125656128,0.0390983521938324
1659029071208684500,4.5586845703125,9.7859525680542,0.6352752447128296,0.04400796443223953
1659029071218354400,4.5683544921875,9.786816596984863,0.6222696900367737,0.03712906315922737
1659029071228024000,4.578024169921875,9.7869234085083,0.6201927065849304,0.043417517095804214
1659029071237694000,4.58769384765625,9.787008285522461,0.6186169981956482,0.04645955562591553
1659029071247363800,4.59736376953125,9.787907600402832,0.6046637892723083,0.040228649973869324
1659029071257033500,4.607033447265625,9.787805557250977,0.605873703956604,0.04649989679455757
1659029071266703400,4.616703369140625,9.787988662719727,0.6031607389450073,0.04322506859898567
1659029071276373200,4.626373291015625,9.788576126098633,0.5937926769256592,0.03961072489619255
1659029071286043000,4.63604296875,9.788406372070312,0.596598744392395,0.03951124846935272
1659029071295712800,4.645712646484375,9.788870811462402,0.589373767375946,0.03228645399212837
1659029071305382700,4.655382568359375,9.789466857910156,0.5793166160583496,0.03318735957145691
1659029071315052300,4.66505224609375,9.789728164672852,0.5748652219772339,0.03378114849328995
1659029071324722200,4.67472216796875,9.790495872497559,0.5621416568756104,0.023750556632876396
1659029071334392000,4.68439208984375,9.791190147399902,0.5499658584594727,0.02283538691699505
1659029071344061700,4.694061767578125,9.79182243347168,0.5384244322776794,0.02652297541499138
1659029071353731600,4.703731689453125,9.79289436340332,0.5186114311218262,0.025632182136178017
1659029071363401500,4.7134013671875,9.793910026550293,0.49901407957077026,0.02682379260659218
1659029071373071000,4.723071044921875,9.795180320739746,0.4729893207550049,0.033275630325078964
1659029071382741000,4.732740966796875,9.796553611755371,0.4432571232318878,0.03797874599695206
1659029071392411000,4.742410888671875,9.798142433166504,0.40692728757858276,0.03494247421622276
1659029071402080800,4.752080810546875,9.79981803894043,0.36393362283706665,0.03877802938222885
1659029071411750400,4.76175048828125,9.80125617980957,0.31956747174263,0.06027761101722717
1659029071421420300,4.771420166015625,9.801909446716309,0.29199692606925964,0.087754026055336
1659029071431090000,4.78108984375,9.801933288574219,0.28497451543807983,0.10615579038858414
1659029071440759800,4.790759765625,9.801900863647461,0.28864574432373047,0.09903192520141602
1659029071450429700,4.8004296875,9.802030563354492,0.2876621186733246,0.08854920417070389
1659029071460099300,4.810099365234375,9.802160263061523,0.2760545313358307,0.10879244655370712
1659029071469769200,4.819769287109375,9.802199363708496,0.2661839425563812,0.12810824811458588
1659029071479439000,4.829439208984375,9.802325248718262,0.2568148672580719,0.137287899851799
1659029071489109000,4.83910888671875,9.80200481414795,0.25631800293922424,0.15936456620693207
1659029071498778600,4.848778564453125,9.801714897155762,0.2579258978366852,0.1738785207271576
1659029071508448500,4.858448486328125,9.80202865600586,0.24800164997577667,0.17060555517673492
1659029071518118400,4.868118408203125,9.801933288574219,0.24963419139385223,0.1736965775489807
1659029071527788000,4.8777880859375,9.80152702331543,0.25964826345443726,0.18176060914993286
1659029071537458000,4.8874580078125,9.801515579223633,0.24813151359558105,0.19779890775680542
1659029071547127800,4.8971279296875,9.801448822021484,0.24801968038082123,0.2012239545583725
1659029071556797400,4.90679736328125,9.80075740814209,0.26482445001602173,0.21305516362190247
1659029071566467300,4.91646728515625,9.801403045654297,0.2421990931034088,0.21033166348934174
1659029071576137200,4.92613720703125,9.800615310668945,0.25908079743385315,0.22628135979175568
1659029071585806800,4.935806884765625,9.801664352416992,0.23972558975219727,0.20076145231723785
1659029071595476700,4.945476806640625,9.801231384277344,0.25938859581947327,0.19742347300052643
1659029071605146600,4.955146728515625,9.801736831665039,0.23334632813930511,0.20464637875556946
1659029071614816300,4.964816162109375,9.800896644592285,0.2613392770290375,0.2109919637441635
1659029071624486100,4.974486083984375,9.8024320602417,0.23184742033481598,0.17018048465251923
1659029071634156000,4.984156005859375,9.8013916015625,0.26364442706108093,0.18328474462032318
1659029071643825700,4.99382568359375,9.802330017089844,0.2362360805273056,0.16997039318084717
1659029071653495600,5.00349560546875,9.801485061645508,0.2451927214860916,0.20290638506412506
1659029071663165400,5.01316552734375,9.801933288574219,0.2603139877319336,0.1572554111480713
1659029071672835000,5.0228349609375,9.80278205871582,0.23964300751686096,0.13567541539669037
1659029071682505000,5.0325048828125,9.801823616027832,0.2501989006996155,0.17894285917282104
1659029071692174800,5.0421748046875,9.802128791809082,0.2546107769012451,0.1543119102716446
1659029071701844700,5.0518447265625,9.802543640136719,0.2447911649942398,0.14359256625175476
1659029071711514400,5.061514404296875,9.80191421508789,0.25200608372688293,0.17137014865875244
1659029071721184300,5.071184326171875,9.801944732666016,0.26520276069641113,0.14813826978206635
1659029071730854000,5.08085400390625,9.802347183227539,0.25273552536964417,0.14316272735595703
1659029071740523800,5.090523681640625,9.801900863647461,0.24967631697654724,0.17544274032115936
1659029071750193700,5.100193603515625,9.801736831665039,0.2667404115200043,0.1587332934141159
1659029071759863300,5.10986328125,9.80229663848877,0.2625649571418762,0.1282108724117279
1659029071769533200,5.119533203125,9.8018159866333,0.2596725821495056,0.16541412472724915
1659029071779203000,5.129203125,9.8018217086792,0.25765806436538696,0.16820067167282104
1659029071788873000,5.138873046875,9.801779747009277,0.26933375000953674,0.15151351690292358
1659029071798542600,5.14854248046875,9.801916122436523,0.2757428288459778,0.12958663702011108
1659029071808212500,5.15821240234375,9.80158519744873,0.2744944989681244,0.15482471883296967
1659029071817882000,5.167882080078125,9.801627159118652,0.27376052737236023,0.15344244241714478
1659029071827552000,5.177552001953125,9.801651954650879,0.27221715450286865,0.15457503497600555
1659029071837222000,5.187221923828125,9.80135726928711,0.27778756618499756,0.16312696039676666
1659029071846891800,5.196891845703125,9.801386833190918,0.2927812337875366,0.13226433098316193
1659029071856561400,5.2065615234375,9.801549911499023,0.28604477643966675,0.13486459851264954
1659029071866231300,5.216231201171875,9.801262855529785,0.2846893072128296,0.15676432847976685
1659029071875901200,5.225901123046875,9.801509857177734,0.28481578826904297,0.14025896787643433
1659029071885570800,5.23557080078125,9.801534652709961,0.2830526828765869,0.14205029606819153
1659029071895240700,5.24524072265625,9.801487922668457,0.2811843454837799,0.14885546267032623
1659029071904910300,5.254910400390625,9.801444053649902,0.2846275866031647,0.14518480002880096
1659029071914580500,5.26458056640625,9.801285743713379,0.2970949113368988,0.13007327914237976
1659029071924250000,5.27425,9.80146598815918,0.2984768748283386,0.11207856237888336
1659029071933920000,5.283919921875,9.801126480102539,0.2996094226837158,0.13618934154510498
1659029071943589600,5.293589599609375,9.801118850708008,0.3051528036594391,0.12388765066862106
1659029071953259500,5.303259521484375,9.80112075805664,0.3073853552341461,0.11799772828817368
1659029071962929400,5.312929443359375,9.800993919372559,0.30751752853393555,0.12780119478702545
1659029071972599000,5.32259912109375,9.800859451293945,0.3102189600467682,0.13153456151485443
1659029071982269000,5.33226904296875,9.80102252960205,0.3060917258262634,0.12910495698451996
1659029071991938800,5.341938720703125,9.800933837890625,0.30656012892723083,0.13452763855457306
1659029072001608700,5.351608642578125,9.801034927368164,0.3079332113265991,0.12359502911567688
1659029072011278300,5.3612783203125,9.80111026763916,0.30489832162857056,0.12511304020881653
1659029072020948200,5.3709482421875,9.800985336303711,0.3098526895046234,0.12269371747970581
1659029072030617900,5.380617919921875,9.801039695739746,0.3130311667919159,0.10967566072940826
1659029072040287700,5.390287841796875,9.8009614944458,0.3144715428352356,0.11247409135103226
1659029072049957600,5.39995751953125,9.801065444946289,0.3126109540462494,0.10847455263137817
1659029072059627500,5.40962744140625,9.801081657409668,0.31137165427207947,0.11063320189714432
1659029072069297200,5.419297119140625,9.800812721252441,0.32236233353614807,0.10262937843799591
1659029072078967000,5.428967041015625,9.799985885620117,0.3537162244319916,0.07438325136899948
1659029072088637000,5.438636962890625,9.80031967163086,0.34834563732147217,0.05280894786119461
1659029072098306600,5.448306640625,9.800302505493164,0.344680517911911,0.07508980482816696
1659029072107976400,5.4579765625,9.80025863647461,0.34871748089790344,0.060930777341127396
1659029072117646300,5.467646240234375,9.800206184387207,0.3495963513851166,0.06416205316781998
1659029072127316000,5.47731591796875,9.80000114440918,0.3551507890224457,0.06518978625535965
1659029072136985900,5.48698583984375,9.800143241882324,0.3518410623073578,0.06152498722076416
1659029072146655700,5.49665576171875,9.799899101257324,0.3569397032260895,0.07052384316921234
1659029072156325400,5.506325439453125,9.800058364868164,0.35430124402046204,0.060798123478889465
1659029072165995300,5.515995361328125,9.799931526184082,0.35605108737945557,0.07043151557445526
1659029072175665200,5.5256650390625,9.799938201904297,0.3565022051334381,0.06706765294075012
1659029072185335000,5.5353349609375,9.80001163482666,0.3553660213947296,0.06219485402107239
1659029072195004700,5.545004638671875,9.80007553100586,0.35225972533226013,0.06948258727788925
1659029072204674600,5.554674560546875,9.800057411193848,0.3535357713699341,0.06527319550514221
1659029072214344200,5.56434423828125,9.799975395202637,0.3566069006919861,0.060852959752082825
1659029072224014000,5.57401416015625,9.799880981445312,0.3592705726623535,0.06021209433674812
1659029072233684000,5.58368408203125,9.799805641174316,0.3618972897529602,0.0567270889878273
1659029072243353600,5.593353515625,9.799946784973145,0.3585140109062195,0.0538126677274704
1659029072253023500,5.6030234375,9.7999906539917,0.35660624504089355,0.058318376541137695
1659029072262693400,5.612693359375,9.800039291381836,0.3557119071483612,0.05562338978052139
1659029072272363300,5.62236328125,9.800065040588379,0.3553575873374939,0.05319453403353691
1659029072282033000,5.632032958984375,9.800154685974121,0.353229820728302,0.0508619025349617
1659029072291702800,5.641702880859375,9.800033569335938,0.3566941022872925,0.04998771846294403
1659029072301372700,5.65137255859375,9.800092697143555,0.35526496171951294,0.04863333702087402
1659029072311042600,5.66104248046875,9.80003833770752,0.3560244143009186,0.053711842745542526
1659029072320712200,5.670712158203125,9.800203323364258,0.35146763920783997,0.05360349267721176
1659029072330382000,5.680382080078125,9.80014705657959,0.3523010313510895,0.058369990438222885
1659029072340051700,5.6900517578125,9.800154685974121,0.35205039381980896,0.05853637680411339
1659029072349721600,5.6997216796875,9.800043106079102,0.35506588220596313,0.05895071476697922
1659029072359391500,5.7093916015625,9.800054550170898,0.35500144958496094,0.057335417717695236
1659029072369061000,5.71906103515625,9.800121307373047,0.35374829173088074,0.0535932220518589
1659029072378731000,5.72873095703125,9.80006217956543,0.35545679926872253,0.053103990852832794
1659029072388401000,5.73840087890625,9.800162315368652,0.3532412648200989,0.04927341639995575
1659029072398070800,5.74807080078125,9.800082206726074,0.3556920886039734,0.04756184294819832
1659029072407740400,5.757740478515625,9.799996376037598,0.35757505893707275,0.05104881152510643
1659029072417410300,5.767410400390625,9.799939155578613,0.35971599817276,0.04672376066446304
1659029072427080000,5.777079833984375,9.799842834472656,0.36256253719329834,0.04479847103357315
1659029072436749800,5.786749755859375,9.800002098083496,0.35792285203933716,0.04726459085941315
1659029072446419700,5.796419677734375,9.799915313720703,0.3603088855743408,0.0470467172563076
1659029072456089600,5.806089599609375,9.799753189086914,0.36473897099494934,0.04664425179362297
1659029072465759200,5.81575927734375,9.799885749816895,0.36134758591651917,0.04550677537918091
1659029072475429000,5.82542919921875,9.799925804138184,0.35967451333999634,0.04980751499533653
1659029072485099000,5.83509912109375,9.799952507019043,0.3594675064086914,0.04579097405076027
1659029072494768600,5.8447685546875,9.799921035766602,0.3605165481567383,0.0442194938659668
1659029072504438500,5.8544384765625,9.799942970275879,0.3595336079597473,0.04731372371315956
1659029072514108400,5.8641083984375,9.799860000610352,0.361774742603302,0.047616299241781235
1659029072523778000,5.873778076171875,9.799853324890137,0.3618486821651459,0.04827086254954338
1659029072533448000,5.883447998046875,9.799736976623535,0.3644697070121765,0.05191923305392265
1659029072543117800,5.893117919921875,9.79967212677002,0.36648088693618774,0.05014406517148018
1659029072552787500,5.902787353515625,9.799529075622559,0.3703799545764923,0.04929110407829285
1659029072562457300,5.912457275390625,9.799365043640137,0.3746829628944397,0.049539145082235336
1659029072572127200,5.922127197265625,9.799286842346191,0.37690144777297974,0.04804493486881256
1659029072581797000,5.931797119140625,9.799287796020508,0.3765333294868469,0.050563305616378784
1659029072591466800,5.941466796875,9.799219131469727,0.37861210107803345,0.048337213695049286
1659029072601136600,5.95113671875,9.799202919006348,0.3791636526584625,0.04753309488296509
1659029072610806500,5.960806640625,9.799132347106934,0.38082706928253174,0.04874774441123009
1659029072620476200,5.97047607421875,9.799080848693848,0.38243088126182556,0.046308789402246475
1659029072630146000,5.98014599609375,9.799041748046875,0.3836178183555603,0.04475641995668411
1659029072639816000,5.98981591796875,9.7990083694458,0.38487708568573,0.04107863828539848
1659029072649485600,5.999485595703125,9.798975944519043,0.38627350330352783,0.03538230434060097
1659029072659155500,6.009155517578125,9.798948287963867,0.38712337613105774,0.03371562063694
1659029072668825300,6.018825439453125,9.798925399780273,0.3879321217536926,0.03075268492102623
1659029072678495000,6.028494873046875,9.798971176147461,0.3869003355503082,0.02951759658753872
1659029072688164900,6.038164794921875,9.798979759216309,0.38667118549346924,0.029433464631438255
1659029072697834800,6.047834716796875,9.798918724060059,0.3883669376373291,0.027387434616684914
1659029072707504600,6.057504638671875,9.798803329467773,0.39168623089790344,0.020575055852532387
1659029072717174300,6.06717431640625,9.798628807067871,0.39625832438468933,0.01581532508134842
1659029072726844200,6.07684423828125,9.798445701599121,0.40090882778167725,0.011065300554037094
1659029072736513800,6.086513671875,9.798324584960938,0.40391236543655396,0.008784514851868153
1659029072746183700,6.09618359375,9.798254013061523,0.4055951237678528,0.009775321930646896
1659029072755853600,6.105853515625,9.798320770263672,0.4038875699043274,0.013512884266674519
1659029072765523500,6.1155234375,9.798320770263672,0.4038779139518738,0.013563143089413643
1659029072775193000,6.125193115234375,9.798311233520508,0.4042004942893982,0.010352258570492268
1659029072784863000,6.134863037109375,9.798258781433105,0.4054616689682007,0.010478992015123367
1659029072794532900,6.144532958984375,9.798195838928223,0.4070497751235962,0.008146550506353378
1659029072804202500,6.154202392578125,9.798139572143555,0.40836769342422485,0.008483676239848137
1659029072813872400,6.163872314453125,9.798195838928223,0.407096803188324,0.0029441267251968384
1659029072823542300,6.173542236328125,9.79804801940918,0.41059228777885437,0.007023523561656475
1659029072833212000,6.1832119140625,9.798073768615723,0.410007119178772,0.005737673491239548
1659029072842881800,6.1928818359375,9.798089981079102,0.40951448678970337,0.010746712796390057
1659029072852551700,6.2025517578125,9.798162460327148,0.4078251123428345,0.008455188013613224
1659029072862221300,6.21222119140625,9.798196792602539,0.407045841217041,0.005508260801434517
1659029072871891200,6.22189111328125,9.798017501831055,0.4113861918449402,-0.00041141692781820893
1659029072881561000,6.23156103515625,9.798094749450684,0.4095221161842346,-0.004268997814506292
1659029072891231000,6.24123095703125,9.79822826385498,0.4062955975532532,-0.0054998211562633514
1659029072900900600,6.250900634765625,9.798391342163086,0.40236520767211914,-0.003271340625360608
1659029072910570500,6.260570556640625,9.798477172851562,0.40026411414146423,-0.005113106686621904
1659029072920240000,6.270240234375,9.798398971557617,0.4020248353481293,-0.011978466995060444
1659029072929910300,6.27991015625,9.798482894897461,0.3999294340610504,-0.014149698428809643
1659029072939580000,6.289579833984375,9.798612594604492,0.3967057466506958,-0.014713514596223831
1659029072949249800,6.299249755859375,9.798736572265625,0.39377325773239136,-0.010139472782611847
1659029072958919400,6.30891943359375,9.798680305480957,0.3947972357273102,-0.019827645272016525
1659029072968589300,6.31858935546875,9.798616409301758,0.3961368799209595,-0.024206679314374924
1659029072978259200,6.32825927734375,9.798924446105957,0.3886747360229492,-0.019865335896611214
1659029072987929000,6.33792919921875,9.799198150634766,0.3821524977684021,-0.008041253313422203
1659029072997598700,6.3475986328125,9.799129486083984,0.3836769461631775,-0.01547065656632185
1659029073007268600,6.3572685546875,9.799233436584473,0.38096970319747925,-0.016804659739136696
1659029073016938500,6.3669384765625,9.799412727355957,0.37657126784324646,-0.010525835677981377
1659029073026608000,6.376608154296875,9.79958724975586,0.3720758557319641,-0.007161356974393129
1659029073036278000,6.386278076171875,9.799538612365723,0.37325072288513184,-0.010535144247114658
1659029073045948000,6.395947998046875,9.799609184265137,0.3714736998081207,-0.008588314056396484
1659029073055617500,6.405617431640625,9.799728393554688,0.36833280324935913,-0.005685134325176477
1659029073065287400,6.415287353515625,9.799856185913086,0.3649632930755615,-0.005017799790948629
1659029073074957300,6.424957275390625,9.799880027770996,0.3643084168434143,-0.004976133815944195
1659029073084627000,6.434626953125,9.799917221069336,0.3631775379180908,-0.01097995787858963
1659029073094296800,6.444296875,9.800033569335938,0.3601423501968384,-0.005350503139197826
1659029073103966700,6.453966796875,9.800060272216797,0.3593832552433014,-0.007485568523406982
1659029073113636600,6.46363671875,9.800071716308594,0.3589891493320465,-0.01060459204018116
1659029073123306200,6.47330615234375,9.800061225891113,0.3593738079071045,-0.006156597752124071
1659029073132976000,6.48297607421875,9.799920082092285,0.36314481496810913,-0.008755526505410671
1659029073142645800,6.492645751953125,9.799814224243164,0.366055428981781,-0.005304452497512102
1659029073152316000,6.50231591796875,9.799665451049805,0.3700695037841797,0.0004494112217798829
1659029073161985500,6.511985595703125,9.79962158203125,0.3711998760700226,0.0004246250609867275
1659029073171655400,6.521655517578125,9.799549102783203,0.3729894757270813,0.009296143427491188
1659029073181325000,6.531324951171875,9.79936408996582,0.3777359127998352,0.013340919278562069
1659029073190995000,6.540994873046875,9.799186706542969,0.38238203525543213,0.010990708135068417
1659029073200664800,6.550664794921875,9.799173355102539,0.3826867938041687,0.01143733598291874
1659029073210334700,6.560334716796875,9.799315452575684,0.3787969648838043,0.017865890637040138
1659029073220004400,6.57000439453125,9.799447059631348,0.37501683831214905,0.024338774383068085
1659029073229674200,6.57967431640625,9.799357414245605,0.3775361478328705,0.021248364821076393
1659029073239344000,6.58934423828125,9.79909896850586,0.38419800996780396,0.021345609799027443
1659029073249013800,6.599013671875,9.798871994018555,0.3903329372406006,0.012216858565807343
1659029073258683600,6.60868359375,9.798810958862305,0.3919057846069336,0.00994469691067934
1659029073268353500,6.618353515625,9.798900604248047,0.3896520435810089,0.010427862405776978
1659029073278023200,6.628023193359375,9.799112319946289,0.3843391537666321,0.008441989310085773
1659029073287693000,6.637693115234375,9.799388885498047,0.37711817026138306,0.012346368283033371
1659029073297363000,6.647363037109375,9.799595832824707,0.3715619444847107,0.015557709150016308
1659029073307032600,6.657032470703125,9.799617767333984,0.37116798758506775,0.010373503901064396
1659029073316702500,6.666702392578125,9.799619674682617,0.3712528347969055,0.002630057977512479
1659029073326372400,6.676372314453125,9.799732208251953,0.3682558536529541,0.005574132781475782
1659029073336042200,6.686042236328125,9.79996395111084,0.3620268702507019,0.005103054456412792
1659029073345711900,6.6957119140625,9.800155639648438,0.3566732108592987,0.010967070236802101
1659029073355381800,6.7053818359375,9.800224304199219,0.35491451621055603,0.006421729922294617
1659029073365051400,6.715051513671875,9.800249099731445,0.35423803329467773,0.004803849849849939
1659029073374721300,6.72472119140625,9.800370216369629,0.3509003818035126,0.0010589169105514884
1659029073384391200,6.73439111328125,9.800580024719238,0.3449852764606476,0.0018738232320174575
1659029073394061000,6.74406103515625,9.800789833068848,0.33868956565856934,0.01396724209189415
1659029073403730700,6.753730712890625,9.801033973693848,0.33155620098114014,0.013640578836202621
1659029073413400600,6.763400634765625,9.801137924194336,0.32837343215942383,0.016267072409391403
1659029073423070500,6.773070556640625,9.801237106323242,0.3252757489681244,0.018329888582229614
1659029073432740400,6.782740234375,9.801453590393066,0.31889811158180237,0.013953390531241894
1659029073442410000,6.792409912109375,9.801311492919922,0.3230956792831421,0.017058420926332474
1659029073452079900,6.802079833984375,9.801525115966797,0.31660422682762146,0.016090769320726395
1659029073461749500,6.81174951171875,9.801715850830078,0.3102404773235321,0.022681839764118195
1659029073471419400,6.82141943359375,9.801969528198242,0.30206355452537537,0.023368077352643013
1659029073481089300,6.83108935546875,9.802183151245117,0.29409509897232056,0.033250514417886734
1659029073490759200,6.84075927734375,9.802254676818848,0.2918473184108734,0.03180042281746864
1659029073500428800,6.8504287109375,9.802179336547852,0.2951110005378723,0.024028798565268517
1659029073510098700,6.8600986328125,9.80224609375,0.29310932755470276,0.021546708419919014
1659029073519768600,6.8697685546875,9.802260398864746,0.2925885319709778,0.02177377976477146
1659029073529438500,6.8794384765625,9.802356719970703,0.289305180311203,0.021874889731407166
1659029073539108000,6.889108154296875,9.80228328704834,0.2920548915863037,0.018401075154542923
1659029073548778000,6.898778076171875,9.8023099899292,0.2912997007369995,0.015216161496937275
1659029073558447900,6.90844775390625,9.80235481262207,0.2894015610218048,0.02191709727048874
1659029073568117500,6.918117431640625,9.802339553833008,0.28957390785217285,0.02564278244972229
1659029073577787400,6.927787353515625,9.802391052246094,0.2877328097820282,0.02702930197119713
1659029073587457300,6.937457275390625,9.802383422851562,0.28760668635368347,0.030752623453736305
1659029073597127000,6.947126953125,9.802352905273438,0.28820371627807617,0.03437807038426399
1659029073606796800,6.956796875,9.802330017089844,0.28850704431533813,0.03841257467865944
1659029073616466700,6.966466796875,9.802325248718262,0.2884364426136017,0.04010940343141556
1659029073626136300,6.97613623046875,9.802287101745605,0.28904926776885986,0.044722769409418106
1659029073635806200,6.98580615234375,9.802325248718262,0.2869914770126343,0.049484483897686005
1659029073645476000,6.99547607421875,9.802253723144531,0.28883033990859985,0.05272967368364334
1659029073655146000,7.00514599609375,9.802250862121582,0.2883681058883667,0.05589103698730469
1659029073664815600,7.014815673828125,9.802205085754395,0.2897917628288269,0.0562841035425663
1659029073674485500,7.024485595703125,9.802242279052734,0.28906312584877014,0.053588271141052246
1659029073684155400,7.0341552734375,9.802116394042969,0.2938790023326874,0.05045369267463684
1659029073693825000,7.043824951171875,9.80207347869873,0.29575154185295105,0.04775892570614815
1659029073703495000,7.053494873046875,9.801997184753418,0.29937803745269775,0.040270138531923294
1659029073713164800,7.063164794921875,9.801712989807129,0.3087862432003021,0.038094546645879745
1659029073722834400,7.07283447265625,9.80147933959961,0.3162391185760498,0.03726743906736374
1659029073732504300,7.08250439453125,9.801197052001953,0.3249758780002594,0.03631341829895973
1659029073742174200,7.09217431640625,9.800739288330078,0.3379691243171692,0.04099345579743385
1659029073751844000,7.101843994140625,9.80061149597168,0.3424023389816284,0.03380249813199043
1659029073761513700,7.111513671875,9.800437927246094,0.34740129113197327,0.033577267080545425
1659029073771183600,7.12118359375,9.800210952758789,0.35386213660240173,0.03219274803996086
1659029073780853500,7.130853515625,9.800213813781738,0.3542344570159912,0.027126220986247063
1659029073790523400,7.1405234375,9.799962997436523,0.3612169027328491,0.02515384368598461
1659029073800193000,7.150193115234375,9.799772262573242,0.3664948642253876,0.02261463552713394
1659029073809863000,7.15986279296875,9.799610137939453,0.37110668420791626,0.01716165617108345
1659029073819532500,7.169532470703125,9.79931926727295,0.3790118098258972,0.009727743454277515
1659029073829202400,7.179202392578125,9.799138069152832,0.3837251365184784,0.006458052434027195
1659029073838872300,7.188872314453125,9.798816680908203,0.39188826084136963,0.003614373505115509
1659029073848542200,7.198542236328125,9.798517227172852,0.39931100606918335,-0.0015328607987612486
1659029073858211800,7.2082119140625,9.798280715942383,0.40505602955818176,-0.00157854740973562
1659029073867881700,7.2178818359375,9.798036575317383,0.41093549132347107,-0.0007983559044077992
1659029073877551600,7.227551513671875,9.797916412353516,0.41381359100341797,-0.0010027760872617364
1659029073887221500,7.237221435546875,9.797713279724121,0.4185566008090973,-0.0003280249366071075
1659029073896891100,7.24689111328125,9.797794342041016,0.41665416955947876,0.0031921330373734236
1659029073906561000,7.25656103515625,9.797893524169922,0.4142625331878662,0.007044435478746891
1659029073916230700,7.266230712890625,9.797956466674805,0.41259047389030457,0.0149602722376585
1659029073925900500,7.275900634765625,9.797904014587402,0.4136977791786194,0.017801107838749886
1659029073935570400,7.2855703125,9.797730445861816,0.4176514446735382,0.020647509023547173
1659029073945240300,7.295240234375,9.797677993774414,0.41877010464668274,0.023167584091424942
1659029073954910000,7.304909912109375,9.79765796661377,0.41898995637893677,0.02693612314760685
1659029073964579800,7.314579833984375,9.797686576843262,0.41805773973464966,0.031121665611863136
1659029073974249700,7.324249755859375,9.797616004943848,0.4193662405014038,0.03525124862790108
1659029073983919600,7.333919677734375,9.797425270080566,0.4235774278640747,0.03771691396832466
1659029073993589200,7.34358935546875,9.797077178955078,0.4320736825466156,0.03122674860060215
1659029074003259100,7.353259033203125,9.796636581420898,0.4421519935131073,0.02838953211903572
1659029074012929000,7.362928955078125,9.796663284301758,0.4416370093822479,0.027111167088150978
1659029074022598700,7.3725986328125,9.79682445526123,0.43727120757102966,0.03768498823046684
1659029074032268500,7.3822685546875,9.796881675720215,0.43529799580574036,0.04487951099872589
1659029074041938400,7.3919384765625,9.796823501586914,0.4363994598388672,0.04668746143579483
1659029074051608000,7.401608154296875,9.796734809875488,0.4390615224838257,0.0399504117667675
1659029074061278000,7.41127783203125,9.796737670898438,0.4388188123703003,0.04187191650271416
1659029074070947800,7.42094775390625,9.796795845031738,0.43720319867134094,0.04505951330065727
1659029074080617500,7.430617431640625,9.796910285949707,0.4344451427459717,0.046916134655475616
1659029074090287400,7.440287353515625,9.79692554473877,0.4339277148246765,0.04845830425620079
1659029074099957200,7.449957275390625,9.796964645385742,0.43304750323295593,0.04848454147577286
1659029074109627100,7.459627197265625,9.797125816345215,0.4293921887874603,0.04845939576625824
1659029074119296800,7.469296875,9.79720401763916,0.42710739374160767,0.052507124841213226
1659029074128966700,7.478966552734375,9.79737377166748,0.42309507727622986,0.053253836929798126
1659029074138636500,7.488636474609375,9.797492027282715,0.4202088415622711,0.05446559563279152
1659029074148306200,7.49830615234375,9.797595977783203,0.41783836483955383,0.05409478396177292
1659029074157976000,7.50797607421875,9.797700881958008,0.41561973094940186,0.052084650844335556
1659029074167646000,7.51764599609375,9.797736167907715,0.4149572551250458,0.050739724189043045
1659029074177315600,7.527315673828125,9.797813415527344,0.412981778383255,0.05176591873168945
1659029074186985500,7.5369853515625,9.797937393188477,0.41014227271080017,0.051052361726760864
1659029074196655400,7.5466552734375,9.798038482666016,0.4074569642543793,0.052901122719049454
1659029074206325200,7.5563251953125,9.798172950744629,0.40438318252563477,0.05162006616592407
1659029074215995000,7.565994873046875,9.798245429992676,0.40260425209999084,0.0515969917178154
1659029074225664800,7.575664794921875,9.798383712768555,0.3994385004043579,0.05025660619139671
1659029074235334700,7.585334716796875,9.79835033416748,0.4006023108959198,0.04721495509147644
1659029074245004500,7.595004638671875,9.798519134521484,0.3957290053367615,0.053049035370349884
1659029074254674200,7.604674072265625,9.798171043395996,0.40079617500305176,0.07484996318817139
1659029074264344000,7.614343994140625,9.798110008239746,0.40201884508132935,0.07626203447580338
1659029074274013700,7.624013671875,9.797455787658691,0.41623204946517944,0.08365094661712646
1659029074283683600,7.63368359375,9.797266960144043,0.42112094163894653,0.08121649920940399
1659029074293353500,7.643353515625,9.797430038452148,0.4168474078178406,0.08358505368232727
1659029074303023400,7.6530234375,9.796734809875488,0.4357873797416687,0.0667734369635582
1659029074312693000,7.66269287109375,9.79665756225586,0.4379214346408844,0.06420011073350906
1659029074322363000,7.67236279296875,9.796853065490723,0.433489054441452,0.06440454721450806
1659029074332032800,7.68203271484375,9.796968460083008,0.4303690195083618,0.06768302619457245
1659029074341702700,7.69170263671875,9.797139167785645,0.4255264103412628,0.07328785210847855
1659029074351372300,7.701372314453125,9.797137260437012,0.42612752318382263,0.06999960541725159
1659029074361042200,7.711042236328125,9.796856880187988,0.4337269961833954,0.062263503670692444
1659029074370711800,7.7207119140625,9.79649543762207,0.4431546926498413,0.05173265188932419
1659029074380381700,7.730381591796875,9.796491622924805,0.4439277648925781,0.04557108134031296
1659029074390051600,7.740051513671875,9.796273231506348,0.44918328523635864,0.04067746177315712
1659029074399721500,7.749721435546875,9.7962064743042,0.45111578702926636,0.03485720232129097
1659029074409391000,7.75939111328125,9.7959566116333,0.45642155408859253,0.03613011911511421
1659029074419061000,7.76906103515625,9.795783996582031,0.46019721031188965,0.03488624095916748
1659029074428731000,7.77873095703125,9.795660018920898,0.46234041452407837,0.04099637642502785
1659029074438400800,7.78840087890625,9.795573234558105,0.4641358554363251,0.04138840734958649
1659029074448070400,7.7980703125,9.795351028442383,0.4686080515384674,0.04342595860362053
1659029074457740300,7.807740234375,9.795537948608398,0.46489208936691284,0.0414009690284729
1659029074467410200,7.81741015625,9.795259475708008,0.47015613317489624,0.047145575284957886
1659029074477080000,7.827080078125,9.795372009277344,0.467348575592041,0.05154867097735405
1659029074486749700,7.836749755859375,9.795467376708984,0.4641663730144501,0.06120346486568451
1659029074496419600,7.846419677734375,9.796104431152344,0.44985175132751465,0.06599264591932297
1659029074506089200,7.856089111328125,9.795527458190918,0.4601355791091919,0.079425148665905
1659029074515759000,7.865759033203125,9.796162605285645,0.44676584005355835,0.07740627974271774
1659029074525429000,7.875428955078125,9.795557975769043,0.4605347812175751,0.07307066768407822
1659029074535099000,7.885098876953125,9.795695304870605,0.46027976274490356,0.05359464883804321
1659029074544768500,7.8947685546875,9.795637130737305,0.461672842502594,0.052512750029563904
1659029074554438400,7.9044384765625,9.795573234558105,0.46303820610046387,0.05237795412540436
1659029074564108300,7.9141083984375,9.79557991027832,0.46211573481559753,0.05879220739006996
1659029074573778200,7.923778076171875,9.795766830444336,0.45764052867889404,0.06238383427262306
1659029074583447800,7.93344775390625,9.795706748962402,0.4596598446369171,0.05689229071140289
1659029074593117700,7.94311767578125,9.795573234558105,0.4625212252140045,0.056648965924978256
1659029074602787300,7.952787353515625,9.795572280883789,0.4638347625732422,0.04498317837715149
1659029074612457200,7.962457275390625,9.795969009399414,0.4562860429286957,0.03433329984545708
1659029074622127000,7.972127197265625,9.796037673950195,0.45539769530296326,0.025589920580387115
1659029074631797000,7.981796875,9.796025276184082,0.4562326967716217,0.011585590429604053
1659029074641466600,7.991466552734375,9.796133995056152,0.45402663946151733,0.0026456271298229694
1659029074651136500,8.001136474609375,9.796486854553223,0.44634509086608887,-0.004022196400910616
1659029074660806400,8.010806396484375,9.796842575073242,0.43844833970069885,-0.003777841804549098
1659029074670476300,8.020476318359375,9.797198295593262,0.4304375946521759,0.00157975684851408
1659029074680146000,8.03014599609375,9.797537803649902,0.422665536403656,-0.000666764855850488
1659029074689815800,8.03981591796875,9.797891616821289,0.4143577218055725,-0.00036870254552923143
1659029074699485700,8.049485595703125,9.79806900024414,0.41011694073677063,-0.006814176682382822
1659029074709155600,8.059155517578125,9.7985258102417,0.3987443149089813,-0.017083926126360893
1659029074718825200,8.0688251953125,9.798603057861328,0.3969123959541321,-0.015082316473126411
1659029074728495000,8.0784951171875,9.798614501953125,0.3966894745826721,-0.01323582325130701
1659029074738164700,8.088164794921875,9.798850059509277,0.3906576633453369,-0.017696009948849678
1659029074747834600,8.097834716796875,9.798661231994629,0.3953388035297394,-0.018516099080443382
1659029074757504500,8.10750439453125,9.798831939697266,0.3913264274597168,-0.012643741443753242
1659029074767174400,8.11717431640625,9.798969268798828,0.3880161941051483,-0.003301209770143032
1659029074776844000,8.126843994140625,9.799382209777832,0.37737470865249634,0.008256753906607628
1659029074786514000,8.136513916015625,9.79937744140625,0.37732160091400146,0.014984363690018654
1659029074796183800,8.146183837890625,9.799527168273926,0.3734484314918518,0.013395514339208603
1659029074805853700,8.155853759765625,9.799756050109863,0.3674754500389099,0.010403061285614967
1659029074815523300,8.1655234375,9.799928665161133,0.3628664016723633,0.010244681499898434
1659029074825193200,8.175193115234375,9.800013542175293,0.3607442080974579,0.0004751163360197097
1659029074834863000,8.184863037109375,9.799816131591797,0.3657244145870209,-0.014605702832341194
1659029074844532700,8.19453271484375,9.799921989440918,0.3625218868255615,-0.02236345410346985
1659029074854202600,8.20420263671875,9.800272941589355,0.3530731499195099,-0.01962786726653576
1659029074863872500,8.21387255859375,9.800810813903809,0.33828169107437134,-0.008722523227334023
1659029074873542100,8.223542236328125,9.801329612731934,0.3229626715183258,-0.0045200372114777565
1659029074883212000,8.2332119140625,9.801762580871582,0.30956992506980896,-0.0007165544666349888
1659029074892882000,8.2428818359375,9.802188873291016,0.2957589626312256,0.0012787643354386091
1659029074902551800,8.2525517578125,9.80255126953125,0.2835180163383484,-0.0007817202131263912
1659029074912221400,8.262221435546875,9.802650451660156,0.2799682915210724,-0.007510073017328978
1659029074921891300,8.271891357421875,9.802330017089844,0.29007646441459656,-0.023788021877408028
1659029074931561200,8.281561279296875,9.802291870117188,0.2895590364933014,-0.040070924907922745
1659029074941231000,8.291231201171875,9.802322387695312,0.2876255214214325,-0.04612305760383606
1659029074950900700,8.300900634765625,9.80259895324707,0.27904433012008667,-0.03977060690522194
1659029074960570600,8.310570556640625,9.8030424118042,0.26469719409942627,-0.02601584978401661
1659029074970240500,8.320240478515625,9.803291320800781,0.25615423917770386,-0.01585419662296772
1659029074979910100,8.32991015625,9.803323745727539,0.25489622354507446,-0.01599808968603611
1659029074989580000,8.339580078125,9.803634643554688,0.24285559356212616,-0.012579455971717834
1659029074999250000,8.34925,9.80364990234375,0.242257222533226,-0.012836620211601257
1659029075008919600,8.35891943359375,9.803520202636719,0.24675196409225464,-0.022058432921767235
1659029075018589400,8.36858935546875,9.803339004516602,0.2533205449581146,-0.02725365199148655
1659029075028259300,8.37825927734375,9.803462982177734,0.24837325513362885,-0.02850889228284359
1659029075037929200,8.38792919921875,9.803207397460938,0.2575715482234955,-0.03414198011159897
1659029075047598800,8.397598876953126,9.803214073181152,0.25813671946525574,-0.027227113023400307
1659029075057268700,8.407268798828126,9.80344295501709,0.2504044771194458,-0.01400926522910595
1659029075066938600,8.416938720703126,9.803362846374512,0.25373131036758423,-0.0083669638261199
1659029075076608300,8.426608154296876,9.803533554077148,0.24716059863567352,0.0037153675220906734
1659029075086278100,8.436278076171876,9.803608894348145,0.24395333230495453,0.010812041349709034
1659029075095948000,8.445947998046876,9.803564071655273,0.245243102312088,0.019493846222758293
1659029075105618000,8.455617919921876,9.80341911315918,0.25097283720970154,0.0191066712141037
1659029075115287600,8.46528759765625,9.803216934204102,0.2586382031440735,0.02113744057714939
1659029075124957400,8.47495751953125,9.803104400634766,0.26178500056266785,0.03166665881872177
1659029075134627300,8.48462744140625,9.802377700805664,0.28871873021125793,0.02052377723157406
1659029075144297000,8.494296875,9.802260398864746,0.29275310039520264,0.019373228773474693
1659029075153966800,8.503966796875,9.80224323272705,0.2933770418167114,0.018873512744903564
1659029075163636700,8.51363671875,9.802160263061523,0.2963736653327942,0.013958025723695755
1659029075173306600,8.523306640625,9.8020601272583,0.29977747797966003,0.011766510084271431
1659029075182976300,8.532976318359376,9.801942825317383,0.30362245440483093,0.011039989069104195
1659029075192646100,8.542646240234374,9.801982879638672,0.3024485409259796,0.008009396493434906
1659029075202316000,8.55231591796875,9.802019119262695,0.30122652649879456,0.007438735105097294
1659029075211985700,8.561985595703124,9.801984786987305,0.3022831976413727,0.009589903987944126
1659029075221655600,8.571655517578124,9.80183219909668,0.3072117567062378,0.009313336573541164
1659029075231325400,8.581325439453124,9.801753997802734,0.30983418226242065,0.002898360602557659
1659029075240995300,8.590995361328124,9.801779747009277,0.3089323937892914,0.008337454870343208
1659029075250665000,8.6006650390625,9.801788330078125,0.30870315432548523,0.006603628862649202
1659029075260334800,8.6103349609375,9.801753997802734,0.3096551299095154,0.010641433298587799
1659029075270004700,8.620004638671874,9.801697731018066,0.31140100955963135,0.011920169927179813
1659029075279674600,8.629674560546874,9.801774024963379,0.30915236473083496,0.007304649334400892
1659029075289344300,8.63934423828125,9.80181884765625,0.30749619007110596,0.013732755556702614
1659029075299014100,8.64901416015625,9.801919937133789,0.30426689982414246,0.012778684496879578
1659029075308683800,8.658683837890624,9.801870346069336,0.3060614764690399,0.007459617219865322
1659029075318353700,8.668353759765624,9.801831245422363,0.3072676360607147,0.00879625789821148
1659029075328023600,8.6780234375,9.801888465881348,0.30551809072494507,0.0035471206065267324
1659029075337693400,8.687693359375,9.801896095275879,0.30524927377700806,0.006549641024321318
1659029075347363000,8.697363037109374,9.801816940307617,0.3078339099884033,0.0021980206947773695
1659029075357033000,8.707032958984374,9.801926612854004,0.3042723536491394,0.005977611057460308
1659029075366702800,8.716702880859375,9.801895141601562,0.3052375912666321,0.008309702388942242
1659029075376372700,8.726372802734375,9.80195140838623,0.30335375666618347,0.01051595713943243
1659029075386042400,8.73604248046875,9.8019380569458,0.3037736713886261,0.011081666685640812
1659029075395712300,8.745712158203125,9.801986694335938,0.3019792139530182,0.016035795211791992
1659029075405382100,8.755382080078125,9.801986694335938,0.3020404577255249,0.014678382314741611
1659029075415052000,8.765052001953125,9.801998138427734,0.3016343116760254,0.0156662929803133
1659029075424721700,8.7747216796875,9.801915168762207,0.30421608686447144,0.017444228753447533
1659029075434391600,8.7843916015625,9.801968574523926,0.30239707231521606,0.018545687198638916
1659029075444061200,8.794061279296875,9.80202579498291,0.30049753189086914,0.019510822370648384
1659029075453731000,8.80373095703125,9.802010536193848,0.30095595121383667,0.019708141684532166
1659029075463401000,8.81340087890625,9.80203914642334,0.30003267526626587,0.019442306831479073
1659029075473070800,8.82307080078125,9.802145004272461,0.2963429093360901,0.022855887189507484
1659029075482740500,8.832740478515625,9.802237510681152,0.29326942563056946,0.022693978622555733
1659029075492410400,8.842410400390625,9.802377700805664,0.28810155391693115,0.02795211784541607
1659029075502080300,8.852080322265625,9.802433967590332,0.28618481755256653,0.027584092691540718
1659029075511750100,8.861750244140625,9.802387237548828,0.2878568470478058,0.027139730751514435
1659029075521419800,8.871419677734375,9.802494049072266,0.2842017412185669,0.02684938535094261
1659029075531089700,8.881089599609375,9.802468299865723,0.28550049662590027,0.022065963596105576
1659029075540759600,8.890759521484375,9.802440643310547,0.2865452468395233,0.0211783517152071
1659029075550429400,8.900429443359375,9.802376747131348,0.2889801263809204,0.017246203497052193
1659029075560099000,8.91009912109375,9.80229377746582,0.29189184308052063,0.01515536941587925
1659029075569769000,8.91976904296875,9.802336692810059,0.29050201177597046,0.014275078661739826
1659029075579438600,8.9294384765625,9.802289962768555,0.2919410169124603,0.0161259938031435
1659029075589108500,8.9391083984375,9.80235767364502,0.2895810306072235,0.017880963161587715
1659029075598778400,8.9487783203125,9.802270889282227,0.2927262485027313,0.013822754845023155
1659029075608448300,8.9584482421875,9.802192687988281,0.29535120725631714,0.013162609189748764
1659029075618118000,8.968117919921875,9.802127838134766,0.297543466091156,0.01174635998904705
1659029075627787800,8.977787841796875,9.802098274230957,0.29857417941093445,0.010047397576272488
1659029075637457700,8.987457763671875,9.802047729492188,0.30030176043510437,0.00837329588830471
1659029075647127600,8.99712744140625,9.802104949951172,0.2984483540058136,0.006773543078452349
1659029075656797200,9.006797119140625,9.802125930786133,0.2978246212005615,0.004967099521309137
1659029075666467000,9.016467041015625,9.802359580993652,0.2899687886238098,0.006797608453780413
1659029075676137000,9.026136962890625,9.80229663848877,0.29210036993026733,0.006396987475454807
1659029075685806600,9.035806640625,9.80250358581543,0.2847595810890198,0.015209618024528027
1659029075695476500,9.0454765625,9.801859855651855,0.3056338429450989,0.022775961086153984
1659029075705146400,9.055146484375,9.801919937133789,0.30443087220191956,0.008300380781292915
1659029075714816300,9.064816162109375,9.801794052124023,0.30793505907058716,0.020118271932005882
1659029075724486000,9.07448583984375,9.80212116241455,0.297873318195343,0.008813871070742607
1659029075734155800,9.08415576171875,9.802373886108398,0.28867480158805847,0.023070741444826126
1659029075743825700,9.09382568359375,9.80241584777832,0.28689828515052795,0.027200760319828987
1659029075753495300,9.103495361328125,9.802346229553223,0.2903144657611847,0.011042356491088867
1659029075763165200,9.113165283203125,9.802543640136719,0.2830945551395416,0.019381174817681313
1659029075772835000,9.1228349609375,9.802568435668945,0.28184565901756287,0.0243690088391304
1659029075782505000,9.1325048828125,9.802602767944336,0.2811410129070282,0.01827358454465866
1659029075792174600,9.142174560546875,9.80268669128418,0.2779309153556824,0.021649960428476334
1659029075801844500,9.151844482421875,9.802729606628418,0.27624183893203735,0.02406580001115799
1659029075811514400,9.161514404296875,9.80276870727539,0.27467212080955505,0.026005536317825317
1659029075821184000,9.17118408203125,9.802762985229492,0.275017112493515,0.02453533001244068
1659029075830854000,9.18085400390625,9.802763938903809,0.2745048999786377,0.029184112325310707
1659029075840523800,9.190523681640625,9.802779197692871,0.27417707443237305,0.02703108824789524
1659029075850193700,9.200193603515626,9.802730560302734,0.2755585312843323,0.030569015070796013
1659029075859863300,9.20986328125,9.802746772766113,0.27477896213531494,0.032202232629060745
1659029075869533200,9.219533203125,9.802691459655762,0.2767758369445801,0.03199568763375282
1659029075879203000,9.229203125,9.802658081054688,0.2781546115875244,0.03043552301824093
1659029075888873000,9.238873046875,9.802658081054688,0.2777823209762573,0.03325523063540459
1659029075898542600,9.24854248046875,9.802642822265625,0.2783483862876892,0.03325747326016426
1659029075908212500,9.25821240234375,9.80258560180664,0.2802903652191162,0.03386017307639122
1659029075917882000,9.267882080078126,9.802571296691895,0.28077980875968933,0.03405598923563957
1659029075927552300,9.27755224609375,9.80248737335205,0.28348904848098755,0.035316288471221924
1659029075937222000,9.287221923828126,9.802475929260254,0.2841701805591583,0.03325097635388374
1659029075946891800,9.296891845703126,9.80239486694336,0.2869318425655365,0.033562369644641876
1659029075956561400,9.3065615234375,9.802277565002441,0.2911320924758911,0.031117143109440804
1659029075966231300,9.316231201171876,9.802093505859375,0.2971035838127136,0.032773252576589584
1659029075975901200,9.325901123046876,9.801931381225586,0.30269673466682434,0.03032514452934265
1659029075985571000,9.335571044921876,9.801865577697754,0.30469074845314026,0.03146468847990036
1659029075995240700,9.34524072265625,9.801844596862793,0.30485671758651733,0.03610959276556969
1659029076004910600,9.35491064453125,9.801742553710938,0.30858689546585083,0.03165947273373604
1659029076014580500,9.36458056640625,9.801750183105469,0.3070502281188965,0.04252079129219055
1659029076024250400,9.37425048828125,9.801579475402832,0.312391072511673,0.042927779257297516
1659029076033920000,9.383919921875,9.800911903381348,0.33430472016334534,0.027553439140319824
1659029076043590000,9.39358984375,9.800885200500488,0.3355932831764221,0.020092304795980453
1659029076053259500,9.403259521484374,9.801450729370117,0.3162536323070526,0.04410707578063011
1659029076062929400,9.412929443359374,9.801400184631348,0.3158378005027771,0.05657454580068588
1659029076072599300,9.422599365234374,9.801024436950684,0.33114320039749146,0.025427505373954773
1659029076082269200,9.432269287109374,9.801220893859863,0.32335489988327026,0.04355442523956299
1659029076091938800,9.441938720703124,9.801630020141602,0.3084414005279541,0.057405393570661545
1659029076101608700,9.451608642578124,9.801640510559082,0.3079985976219177,0.05810853838920593
1659029076111278600,9.461278564453124,9.80152416229248,0.31362980604171753,0.046221569180488586
1659029076120948500,9.470948486328124,9.8015775680542,0.3117315471172333,0.047717079520225525
1659029076130618000,9.4806181640625,9.80168628692627,0.3078259229660034,0.05084393918514252
1659029076140288000,9.4902880859375,9.801694869995117,0.30727633833885193,0.05244290828704834
1659029076149958000,9.4999580078125,9.801637649536133,0.30955585837364197,0.049618903547525406
1659029076159627800,9.509627685546874,9.801578521728516,0.3120454251766205,0.045595765113830566
1659029076169297400,9.51929736328125,9.801568984985352,0.31216052174568176,0.046849288046360016
1659029076178967300,9.52896728515625,9.801592826843262,0.311136394739151,0.048706844449043274
1659029076188637200,9.53863720703125,9.80154037475586,0.31254810094833374,0.05009068548679352
1659029076198306800,9.548306884765625,9.801222801208496,0.32330816984176636,0.04358872398734093
1659029076207976700,9.557976806640625,9.801007270812988,0.3309440612792969,0.03338496759533882
1659029076217646600,9.567646484375,9.801326751708984,0.32054901123046875,0.040375906974077225
1659029076227316500,9.57731640625,9.801569938659668,0.30930399894714355,0.06290073692798615
1659029076236986000,9.586986083984375,9.801377296447754,0.31871774792671204,0.04269101843237877
1659029076246656000,9.596656005859375,9.801369667053223,0.3191087245941162,0.04121144488453865
1659029076256326000,9.606325927734375,9.801531791687012,0.3121856451034546,0.05388392135500908
1659029076265995500,9.61599560546875,9.80141544342041,0.3167911171913147,0.047872740775346756
1659029076275665400,9.62566552734375,9.80136489868164,0.3188723027706146,0.044109418988227844
1659029076285335300,9.635335205078125,9.801447868347168,0.3147510290145874,0.05429823324084282
1659029076295005000,9.6450048828125,9.801433563232422,0.31510454416275024,0.05480094626545906
1659029076304674800,9.6546748046875,9.801377296447754,0.3184163570404053,0.044780272990465164
1659029076314344700,9.6643447265625,9.80140209197998,0.3163969814777374,0.052900414913892746
1659029076324014600,9.6740146484375,9.801371574401855,0.317491739988327,0.05194069817662239
1659029076333684200,9.683684326171875,9.801315307617188,0.3196357190608978,0.04932089522480965
1659029076343354000,9.69335400390625,9.801305770874023,0.3197160065174103,0.050772663205862045
1659029076353024000,9.70302392578125,9.80125617980957,0.32099053263664246,0.05222378298640251
1659029076362694000,9.71269384765625,9.801271438598633,0.3207762837409973,0.05057886242866516
1659029076372363500,9.722363525390625,9.801484107971191,0.31423139572143555,0.05052423104643822
1659029076382033400,9.732033447265625,9.801553726196289,0.3119363784790039,0.05127686262130737
1659029076391703300,9.741703369140625,9.8018159866333,0.3032619059085846,0.05300780013203621
1659029076401373200,9.751373291015625,9.801791191101074,0.3055362403392792,0.04382861405611038
1659029076411042800,9.761042724609375,9.802109718322754,0.2949649393558502,0.045055802911520004
1659029076420712700,9.770712646484375,9.802170753479004,0.2902643382549286,0.059842780232429504
1659029076430382300,9.78038232421875,9.802366256713867,0.28670534491539,0.04251638054847717
1659029076440052200,9.79005224609375,9.802972793579102,0.25900712609291077,0.07088446617126465
1659029076449722000,9.79972216796875,9.80325698852539,0.21785959601402283,0.13807989656925201
1659029076459392000,9.80939208984375,9.803333282470703,0.18377594649791718,0.176857590675354
1659029076469061600,9.8190615234375,9.803726196289062,0.17418697476387024,0.1643357127904892
1659029076478731500,9.8287314453125,9.803925514221191,0.18194891512393951,0.14255423843860626
1659029076488401400,9.8384013671875,9.803733825683594,0.19723044335842133,0.1352251023054123
1659029076498071300,9.8480712890625,9.803375244140625,0.2173888236284256,0.13030079007148743
1659029076507741000,9.857740966796875,9.80317497253418,0.2377183437347412,0.1079011857509613
1659029076517410800,9.867410888671875,9.803138732910156,0.24485525488853455,0.09443514049053192
1659029076527080700,9.877080810546875,9.803319931030273,0.23024579882621765,0.11077138781547546
1659029076536750600,9.88675048828125,9.80349063873291,0.20947395265102386,0.1344255805015564
1659029076546420200,9.896420166015625,9.803597450256348,0.1958511918783188,0.14665311574935913
1659029076556090000,9.906090087890625,9.80366039276123,0.19473610818386078,0.14395318925380707
1659029076565760000,9.915760009765625,9.803637504577637,0.20239518582820892,0.13462547957897186
1659029076575429600,9.9254296875,9.803516387939453,0.21354840695858002,0.12583546340465546
1659029076585099500,9.935099609375,9.803359985351562,0.22464653849601746,0.1185079962015152
1659029076594769400,9.944769287109375,9.8032865524292,0.2315397709608078,0.11113779991865158
1659029076604439300,9.954439208984375,9.803328514099121,0.2303658425807953,0.10986991226673126
1659029076614109000,9.96410888671875,9.803403854370117,0.22216986119747162,0.11953344941139221
1659029076623778800,9.97377880859375,9.803458213806152,0.2125796228647232,0.13196945190429688
1659029076633448700,9.98344873046875,9.803520202636719,0.2069118469953537,0.1362442970275879
1659029076643118600,9.99311865234375,9.80356216430664,0.20717115700244904,0.13290075957775116
1659029076652788200,10.002788330078126,9.803520202636719,0.21157954633235931,0.12886863946914673
1659029076662458000,10.0124580078125,9.803442001342773,0.21733860671520233,0.12516267597675323
1659029076672127700,10.022127685546875,9.803391456604004,0.22203058004379272,0.12086575478315353
1659029076681797600,10.031797607421876,9.803375244140625,0.22413216531276703,0.11825046688318253
1659029076691467500,10.041467529296876,9.803390502929688,0.22247955203056335,0.12008985877037048
1659029076701137400,10.051137451171876,9.803413391113281,0.21845579147338867,0.125459685921669
1659029076710807000,10.06080712890625,9.803430557250977,0.2152215987443924,0.1296662837266922
1659029076720477000,10.070476806640626,9.803447723388672,0.21459752321243286,0.1294289529323578
1659029076730146800,10.080146728515626,9.802828788757324,0.25114792585372925,0.10894010961055756
1659029076739816700,10.089816650390626,9.801920890808105,0.30025941133499146,0.050763752311468124
1659029076749486300,10.099486328125,9.8020601272583,0.28837156295776367,0.0828114002943039
1659029076759156200,10.10915625,9.802247047424316,0.27252787351608276,0.10982870310544968
1659029076768826000,10.118826171875,9.802386283874512,0.27264341711997986,0.09625661373138428
1659029076778496000,10.12849609375,9.802757263183594,0.2591899037361145,0.09563219547271729
1659029076788165600,10.13816552734375,9.80327033996582,0.22746554017066956,0.1205904632806778
