time,seconds_elapsed,z,y,x
1659029066702558000,0.052557861328125,-0.000305432389723137,-0.06421715766191483,-0.03023780696094036
1659029066712227600,0.0622275390625,-0.002443459117785096,-0.016875140368938446,0.008552107028663158
1659029066721897500,0.0718974609375,-0.0030543238390237093,0.05581776797771454,0.02626718580722809
1659029066731567400,0.0815673828125,-0.002443459117785096,0.01672242395579815,0.007024944759905338
1659029066741237200,0.0912373046875,-0.0015271619195118546,-0.031230462715029716,-0.023823726922273636
1659029066750907000,0.100906982421875,-0.001221729558892548,-0.01626427471637726,-0.021991131827235222
1659029066760576800,0.11057666015625,-0.0021380267571657896,0.00603228947147727,0.008246674202382565
1659029066770246700,0.12024658203125,-0.003359756199643016,0.020998476073145866,0.019853105768561363
1659029066779916300,0.129916259765625,-0.002443459117785096,0.0057268571108579636,-0.000305432389723137
1659029066789586200,0.139586181640625,-0.0009162971982732415,-0.024816380813717842,-0.018325943499803543
1659029066799256000,0.149256103515625,-0.0015271619195118546,-0.008323032408952713,-0.012522728182375431
1659029066808925700,0.15892578125,-0.0027488914784044027,0.0191658828407526,0.007024944759905338
1659029066818595600,0.168595703125,-0.0027488914784044027,0.009392046369612217,0.009773836471140385
1659029066828265500,0.178265380859375,-0.0021380267571657896,-0.008933897130191326,-0.004581485874950886
1659029066837935000,0.18793505859375,-0.001221729558892548,-0.014126247726380825,-0.012522728182375431
1659029066847605000,0.19760498046875,-0.0015271619195118546,-0.00007635809743078426,-0.004276053514331579
1659029066857275000,0.20727490234375,-0.0021380267571657896,0.015195261687040329,0.003359756199643016
1659029066866944800,0.21694482421875,-0.0021380267571657896,0.004199695307761431,0.0021380267571657896
1659029066876614400,0.226614501953125,-0.0021380267571657896,-0.013515383005142212,-0.007024944759905338
1659029066886284300,0.2362841796875,-0.001832594396546483,-0.0016035200096666813,-0.004581485874950886
1659029066895954000,0.245953857421875,-0.003359756199643016,0.10499238222837448,0.0461202897131443
1659029066905623800,0.255623779296875,-0.005803215317428112,0.3252091407775879,0.14141519367694855
1659029066915293700,0.265293701171875,-0.006719512399286032,0.3804923892021179,0.1695149689912796
1659029066924963600,0.274963623046875,-0.003665188793092966,0.2427423894405365,0.11545344442129135
1659029066934633200,0.28463330078125,-0.001832594396546483,0.058566659688949585,0.020769402384757996
1659029066944303000,0.29430322265625,-0.001832594396546483,-0.03428478538990021,-0.00946840364485979
1659029066953973000,0.303972900390625,-0.003359756199643016,-0.005268708802759647,-0.003359756199643016
1659029066963642600,0.313642578125,-0.002443459117785096,0.035964664071798325,0.014660755172371864
1659029066973312500,0.3233125,-0.0009162971982732415,0.0475710928440094,0.018631376326084137
1659029066982982400,0.332982421875,-0.000305432389723137,0.008170315995812416,0.001221729558892548
1659029066992652000,0.342652099609375,0.000305432389723137,-0.019929463043808937,-0.012217295356094837
1659029067002322000,0.352322021484375,-0.002443459117785096,0.008781181648373604,0.0027488914784044027
1659029067011991800,0.36199169921875,-0.004276053514331579,0.04085158184170723,0.013439024798572063
1659029067021661400,0.371661376953125,-0.003665188793092966,0.008170315995812416,-0.011606430634856224
1659029067031331300,0.381331298828125,-0.0030543238390237093,-0.03825540840625763,-0.029932374134659767
1659029067041001200,0.391001220703125,-0.0054977829568088055,-0.0553596206009388,-0.05436696484684944
1659029067050671000,0.400671142578125,-0.005192350596189499,-0.09781472384929657,-0.04764745384454727
1659029067060340700,0.4103408203125,-0.006719512399286032,-0.15462514758110046,-0.04245510324835777
1659029067070010600,0.4200107421875,-0.007941242307424545,-0.17234022915363312,-0.06841685622930527
1659029067079680300,0.42968017578125,-0.01282816007733345,-0.12163844704627991,-0.05436696484684944
1659029067089350100,0.43935009765625,-0.018325943499803543,-0.053832460194826126,-0.02412915788590908
1659029067099020000,0.44902001953125,-0.010384701192378998,0.013973532244563103,-0.001221729558892548
1659029067108690000,0.45868994140625,-0.003970621153712273,0.053374309092760086,0.019853105768561363
1659029067118359600,0.468359619140625,-0.003970621153712273,0.0527634471654892,0.025045456364750862
1659029067128029400,0.478029541015625,-0.003970621153712273,0.05215258151292801,0.016187917441129684
1659029067137699300,0.48769921875,-0.0021380267571657896,-0.06757691502571106,-0.043371398001909256
1659029067147369000,0.497368896484375,0,-0.20013457536697388,-0.0665842592716217
1659029067157038800,0.507038818359375,-0.006719512399286032,-0.004352411720901728,-0.016187917441129684
1659029067166708700,0.516708740234375,-0.0054977829568088055,0.13858994841575623,0.05711585655808449
1659029067176378600,0.526378662109375,-0.006414080038666725,0.19051344692707062,0.07086031138896942
1659029067186048300,0.53604833984375,-0.006108647678047419,0.1758527010679245,0.05894844979047775
1659029067195718100,0.54571826171875,-0.0027488914784044027,0.1242346242070198,0.03329212963581085
1659029067205387800,0.5553876953125,-0.003665188793092966,0.08941533416509628,0.02779434807598591
1659029067215057700,0.5650576171875,-0.003970621153712273,0.047265663743019104,0.021685699000954628
1659029067224727600,0.5747275390625,-0.0015271619195118546,0.010613775812089443,0.017104214057326317
1659029067234397400,0.5843974609375,-0.000610864779446274,0.000839939049910754,0.003359756199643016
1659029067244067000,0.594067138671875,-0.0009162971982732415,-0.011988221667706966,-0.002443459117785096
1659029067253737000,0.603737060546875,-0.0030543238390237093,0.022220205515623093,0.0027488914784044027
1659029067263406800,0.61340673828125,-0.003665188793092966,0.023136503994464874,0.005803215317428112
1659029067273076500,0.623076416015625,-0.002443459117785096,-0.006185005884617567,0.0009162971982732415
1659029067282746400,0.632746337890625,-0.0015271619195118546,0.003894262947142124,0.0009162971982732415
1659029067292416000,0.642416015625,-0.0021380267571657896,0.01000291109085083,0.0030543238390237093
1659029067302086000,0.6520859375,-0.0015271619195118546,0.03352120518684387,0.013439024798572063
1659029067311755800,0.661755859375,0.001832594396546483,0.047265663743019104,0.01954767294228077
1659029067321425700,0.67142578125,0.000610864779446274,0.001450803829357028,0.003970621153712273
1659029067331095300,0.68109521484375,-0.0021380267571657896,-0.005574141163378954,0.001832594396546483
1659029067340765200,0.69076513671875,-0.005192350596189499,0.021609341725707054,0.009162971749901772
1659029067350435000,0.70043505859375,-0.003665188793092966,0.014584396965801716,0.007635809946805239
1659029067360104700,0.710104736328125,-0.000610864779446274,0.0011453714687377214,0.002443459117785096
1659029067369774600,0.719774658203125,0.008857538923621178,0.0023671009112149477,0.006719512399286032
1659029067379444500,0.729444580078125,0.030543239787220955,0.025274530053138733,0.011606430634856224
1659029067389114000,0.739114013671875,0.09071341902017593,0.024052800610661507,-0.001832594396546483
1659029067398784000,0.748783935546875,0.14599667489528656,-0.02756527252495289,-0.010995565913617611
1659029067408454000,0.758453857421875,0.10965022444725037,-0.036422811448574066,-0.005803215317428112
1659029067418123500,0.76812353515625,0.05803215503692627,0.013057234697043896,0.008246674202382565
1659029067427793400,0.77779345703125,0.047036588191986084,0.001450803829357028,0.006108647678047419
1659029067437463300,0.78746337890625,0.02871064469218254,-0.02542724646627903,-0.006108647678047419
1659029067447133200,0.79713330078125,-0.003970621153712273,0.000839939049910754,0.007941242307424545
1659029067456802800,0.806802734375,-0.0030543238390237093,0.027717988938093185,0.022907428443431854
1659029067466472700,0.81647265625,0.01435532234609127,0.012140937149524689,0.0054977829568088055
1659029067476142600,0.826142578125,0.02932151034474373,-0.005574141163378954,0.004276053514331579
1659029067485812200,0.835812255859375,0.04978547990322113,0.0023671009112149477,-0.000305432389723137
1659029067495482000,0.845482177734375,0.05345066636800766,-0.0034361144062131643,0.000305432389723137
1659029067505151700,0.85515185546875,0.05406153202056885,-0.010155626572668552,-0.0030543238390237093
1659029067514821600,0.864821533203125,0.03695731982588768,-0.026343543082475662,-0.000305432389723137
1659029067524491500,0.874491455078125,-0.003665188793092966,-0.022067490965127945,0.001221729558892548
1659029067534161400,0.884161376953125,-0.06108647957444191,-0.01718057133257389,0.008552107028663158
1659029067543831000,0.8938310546875,-0.10903936624526978,0.006337722297757864,0.00946840364485979
1659029067553501000,0.9035009765625,-0.14538581669330597,0.02130390889942646,0.009162971749901772
1659029067563170800,0.9131708984375,-0.16798780858516693,0.017027854919433594,0.009162971749901772
1659029067572840400,0.92284033203125,-0.14172062277793884,0.012751801870763302,0.003359756199643016
1659029067582510300,0.93251025390625,-0.06108647957444191,0.007864884100854397,-0.006719512399286032
1659029067592180000,0.942179931640625,-0.026878049597144127,-0.015347977168858051,-0.001221729558892548
1659029067601849900,0.951849853515625,-0.011911863461136818,0.0005345066892914474,0.008246674202382565
1659029067611519700,0.961519775390625,-0.011606430634856224,0.023747367784380913,0.0030543238390237093
1659029067621189600,0.971189697265625,-0.03848448023200035,-0.029397867619991302,-0.007635809946805239
1659029067630859300,0.980859375,-0.07544180005788803,-0.022983787581324577,0.006719512399286032
1659029067640529200,0.990529052734375,-0.09498947113752365,0.023441936820745468,0.022296564653515816
1659029067650199000,1.000198974609375,-0.12247838824987411,-0.0009926552884280682,0
1659029067659868700,1.00986865234375,-0.12644900381565094,-0.005574141163378954,-0.003359756199643016
1659029067669538600,1.01953857421875,-0.12767073512077332,0.023441936820745468,0.011911863461136818
1659029067679208400,1.02920849609375,-0.12003492563962936,0.013668099418282509,0.015271619893610477
1659029067688878000,1.038878173828125,-0.13500112295150757,0.004199695307761431,0.003970621153712273
1659029067698548000,1.0485478515625,-0.1444695144891739,-0.019624030217528343,0.000610864779446274
1659029067708217900,1.0582177734375,-0.129197895526886,0.006948587018996477,-0.001832594396546483
1659029067717887500,1.067887451171875,-0.11056652665138245,-0.015347977168858051,-0.010995565913617611
1659029067727557400,1.077557373046875,-0.11484257876873016,-0.008017600513994694,-0.014660755172371864
1659029067737225500,1.0872255859375,-0.11117739230394363,0.00511599238961935,0.007330377586185932
1659029067746895400,1.096895263671875,-0.09957095980644226,0.013057234697043896,-0.008552107028663158
1659029067756565200,1.106565185546875,-0.06627883017063141,-0.0016035200096666813,-0.003359756199643016
1659029067766235100,1.116235107421875,-0.05497783049941063,-0.00923932995647192,-0.0030543238390237093
1659029067775904800,1.12590478515625,-0.019853105768561363,-0.00954476185142994,0.001832594396546483
1659029067785574700,1.13557470703125,-0.017104214057326317,-0.016875140368938446,0.005192350596189499
1659029067795244500,1.14524462890625,0.008857538923621178,-0.017486004158854485,-0.001832594396546483
1659029067804914200,1.1549140625,0.03756818547844887,-0.016875140368938446,0.005192350596189499
1659029067814584000,1.164583984375,0.03940077871084213,-0.008323032408952713,0.010079269297420979
1659029067824253700,1.174253662109375,0.07483093440532684,-0.004657844081521034,0.001832594396546483
1659029067833923600,1.183923583984375,0.08521563559770584,-0.024510949850082397,0.013133592903614044
1659029067843593500,1.193593505859375,0.046425722539424896,-0.014126247726380825,0.002443459117785096
1659029067853263400,1.203263427734375,0.08674279600381851,-0.030925029888749123,0.020158538594841957
1659029067862933000,1.21293310546875,0.09101885557174683,-0.010766491293907166,-0.013439024798572063
1659029067872603000,1.222602783203125,0.09651663154363632,-0.004657844081521034,-0.004276053514331579
1659029067882272800,1.232272705078125,0.09529490768909454,-0.06757691502571106,-0.007024944759905338
1659029067891942400,1.2419423828125,0.1078176349401474,0.035964664071798325,0.03634645417332649
1659029067901612300,1.2516123046875,0.12950333952903748,0.01611155830323696,0.013133592903614044
1659029067911282000,1.261281982421875,0.13469567894935608,-0.013515383005142212,-0.01893680728971958
1659029067920951800,1.270951904296875,0.14049890637397766,0.0017562361899763346,0.008246674202382565
1659029067930621700,1.28062158203125,0.12492185086011887,0.04512763395905495,0.023212861269712448
1659029067940291600,1.29029150390625,0.1334739476442337,-0.005574141163378954,-0.02626718580722809
1659029067949961200,1.299961181640625,0.2107483446598053,-0.07918334752321243,-0.04459312930703163
1659029067959631000,1.309631103515625,0.1951712965965271,0.010613775812089443,0.004276053514331579
1659029067969301000,1.319301025390625,0.16584978997707367,0.0319940410554409,-0.012522728182375431
1659029067978970600,1.328970703125,0.1597411334514618,-0.03275762498378754,-0.0772743970155716
1659029067988640500,1.338640625,0.2156352698802948,-0.04253146052360535,-0.05345066636800766
1659029067998310100,1.34831005859375,0.17562362551689148,0.006948587018996477,0.02260199747979641
1659029068007980000,1.35797998046875,0.13744457066059113,0.07994692772626877,0.021380268037319183
1659029068017650000,1.36764990234375,0.09896009415388107,-0.04253146052360535,-0.0256563201546669
1659029068027319800,1.37731982421875,0.0256563201546669,-0.02695440873503685,-0.022296564653515816
1659029068036989400,1.386989501953125,0.003970621153712273,0.02649625949561596,0.04276053607463837
1659029068046659300,1.396659423828125,-0.01893680728971958,0.032910339534282684,0.018325943499803543
1659029068056329200,1.4063291015625,0.016187917441129684,-0.04069886729121208,-0.019853105768561363
1659029068065998800,1.415998779296875,0.02871064469218254,-0.013820815831422806,0.010690134018659592
1659029068075668700,1.425668701171875,0.07635809481143951,0.004505127668380737,0.024740023538470268
1659029068085338400,1.43533837890625,0.05497783049941063,-0.02176205813884735,-0.005192350596189499
1659029068095008300,1.44500830078125,0.05406153202056885,-0.04039343446493149,0.000610864779446274
1659029068104678100,1.45467822265625,-0.05192350596189499,0.004810560029000044,0.01282816007733345
1659029068114347800,1.46434765625,-0.11148282140493393,-0.020540328696370125,0.02932151034474373
1659029068124017700,1.474017578125,-0.10659590363502502,-0.002825249684974551,0.017104214057326317
1659029068133687600,1.4836875,-0.10201441496610641,-0.0345902182161808,-0.011606430634856224
1659029068143357400,1.493357421875,-0.09682206809520721,-0.05199986323714256,0.004581485874950886
1659029068153027000,1.503027099609375,-0.09101885557174683,0.012446369975805283,0.035735588520765305
1659029068162697000,1.512697021484375,-0.10079269111156464,-0.004352411720901728,-0.006414080038666725
1659029068172366600,1.52236669921875,-0.09712749719619751,-0.031230462715029716,-0.008552107028663158
1659029068182036500,1.532036376953125,-0.06475166976451874,-0.008628465235233307,0.0009162971982732415
1659029068191706400,1.541706298828125,-0.043982263654470444,0.0023671009112149477,0.02260199747979641
1659029068201376000,1.5513759765625,-0.047952886670827866,0.10499238222837448,-0.015577051788568497
1659029068211046000,1.5610458984375,-0.07116574794054031,0.05367974191904068,-0.03848448023200035
1659029068220715800,1.5707158203125,-0.05283980444073677,-0.0862082913517952,0.0021380267571657896
1659029068230385700,1.5803857421875,-0.13591741025447845,0.06895136088132858,0.011606430634856224
1659029068240055300,1.59005517578125,-0.17806708812713623,0.1037706509232521,-0.07269290834665298
1659029068249725200,1.59972509765625,-0.10659590363502502,-0.05261072888970375,0.010384701192378998
1659029068259394800,1.609394775390625,-0.06291907280683517,0.08544471114873886,-0.022296564653515816
1659029068269064700,1.619064697265625,-0.07819069176912308,0.07383827865123749,-0.031154103577136993
1659029068278734600,1.628734619140625,0.012217295356094837,-0.07826705276966095,-0.008857538923621178
1659029068288404200,1.638404296875,0.01893680728971958,0.055512335151433945,-0.032070402055978775
1659029068298074000,1.64807421875,-0.007330377586185932,-0.004352411720901728,-0.04825831577181816
1659029068307744000,1.657743896484375,-0.04520399495959282,-0.05230529606342316,-0.037262752652168274
1659029068317414000,1.667413818359375,-0.05894844979047775,0.02283107116818428,-0.029016077518463135
1659029068327083500,1.67708349609375,-0.06719512492418289,-0.05322159454226494,-0.020769402384757996
1659029068336753400,1.68675341796875,-0.0665842592716217,-0.04436405375599861,-0.014966187067329884
1659029068346423300,1.69642333984375,-0.07391463965177536,0.03504836559295654,0.000305432389723137
1659029068356093000,1.706093017578125,-0.03695731982588768,-0.06391172856092453,0.02412915788590908
1659029068365762800,1.7157626953125,-0.0409279391169548,-0.036422811448574066,0.0015271619195118546
1659029068375432400,1.725432373046875,-0.06047561392188072,-0.02237292192876339,0.000305432389723137
1659029068385102300,1.735102294921875,-0.07941242307424545,-0.044669486582279205,0.01282816007733345
1659029068394772200,1.744772216796875,-0.08032871782779694,-0.020540328696370125,0.002443459117785096
1659029068404441900,1.75444189453125,-0.08613193035125732,0.008170315995812416,0.02260199747979641
1659029068414111700,1.76411181640625,-0.05711585655808449,0.01763872057199478,0.011300998739898205
1659029068423781600,1.77378173828125,-0.0409279391169548,-0.022983787581324577,-0.003359756199643016
1659029068433451500,1.783451416015625,-0.023212861269712448,0.024663666263222694,0.01588248461484909
1659029068443121200,1.79312109375,0.057726722210645676,0.02649625949561596,-0.013439024798572063
1659029068452791000,1.802791015625,0.09346231073141098,-0.04589121788740158,-0.04245510324835777
1659029068462460700,1.812460693359375,0.13469567894935608,-0.02023489587008953,-0.04581485688686371
1659029068472130600,1.822130615234375,0.1279761642217636,0.003894262947142124,-0.029016077518463135
1659029068481800400,1.831800537109375,0.08582650125026703,-0.01626427471637726,0.005803215317428112
1659029068491470000,1.841469970703125,0.02932151034474373,0.023136503994464874,0.007330377586185932
1659029068501140000,1.851139892578125,-0.01802051067352295,0.003283398225903511,-0.007941242307424545
1659029068510809900,1.860809814453125,-0.017715077847242355,0.01672242395579815,-0.0054977829568088055
1659029068520479700,1.870479736328125,-0.01802051067352295,0.028634287416934967,-0.007330377586185932
1659029068530149400,1.8801494140625,-0.008552107028663158,0.008170315995812416,-0.010384701192378998
1659029068539819300,1.8898193359375,0.026878049597144127,0.05001455545425415,-0.023212861269712448
1659029068549489000,1.899489013671875,0.13225223124027252,0.026190826669335365,0.016798781231045723
1659029068559158800,1.90915869140625,0.13652828335762024,0.013973532244563103,-0.024434590712189674
1659029068568828700,1.91882861328125,0.16157373785972595,-0.04283689334988594,-0.0021380267571657896
1659029068578498300,1.928498291015625,0.1380554437637329,0.019471315667033195,0.0360410213470459
1659029068588168200,1.938168212890625,0.09834922850131989,0.024052800610661507,-0.032070402055978775
1659029068597838000,1.947838134765625,0.06108647957444191,-0.012293653562664986,-0.0021380267571657896
1659029068607507700,1.9575078125,0.04917461425065994,0.015806125476956367,-0.0204639695584774
1659029068617177600,1.967177490234375,0.04581485688686371,0.004810560029000044,0.06933315098285675
1659029068626847500,1.976847412109375,0.09315688163042068,0.07750347256660461,0.01740964688360691
1659029068636517000,1.98651708984375,0.11087195575237274,-0.06360629200935364,0.03237583488225937
1659029068646187000,1.99618701171875,0.1279761642217636,0.029245151206851006,0.02718348242342472
1659029068655857000,2.00585693359375,0.12095122784376144,-0.00679587060585618,-0.004886918235570192
1659029068665526500,2.015526611328125,0.10537417232990265,-0.06696604937314987,0.009162971749901772
1659029068675196400,2.025196533203125,0.0513126403093338,0.00755945174023509,0.0668896958231926
1659029068684866300,2.0348662109375,0.004276053514331579,0.03474293276667595,0.05955931544303894
1659029068694536000,2.044535888671875,-0.04673115536570549,0.01824958436191082,-0.03023780696094036
1659029068704205800,2.054205810546875,-0.07880155742168427,-0.04864010959863663,-0.01435532234609127
1659029068713875500,2.06387548828125,-0.12736530601978302,0.042684175074100494,0.04214967042207718
1659029068723545300,2.07354541015625,-0.15729768574237823,-0.0031306820455938578,0.014966187067329884
1659029068733215200,2.08321533203125,-0.10965022444725037,-0.28443390130996704,0
1659029068742885000,2.092885009765625,-0.04917461425065994,0.050930850207805634,-0.05742128938436508
1659029068752554800,2.1025546875,-0.11942406743764877,0.17524182796478271,0.0665842592716217
1659029068762224600,2.112224609375,-0.0922405794262886,-0.13477204740047455,-0.04978547990322113
1659029068771894500,2.12189453125,-0.022296564653515816,-0.007101302966475487,0.02626718580722809
1659029068781564200,2.131564208984375,-0.000305432389723137,0.1037706509232521,0.007941242307424545
1659029068791234000,2.141234130859375,-0.04306596517562866,-0.16195552051067352,-0.036651886999607086
1659029068800903700,2.150903564453125,-0.003359756199643016,0.043600473552942276,-0.043982263654470444
1659029068810573600,2.160573486328125,0.0821613147854805,0.025579962879419327,0.06597339361906052
1659029068820243500,2.170243408203125,0.1533270627260208,-0.010461059398949146,-0.04153880476951599
1659029068829913300,2.179913330078125,0.04276053607463837,-0.07948877662420273,0.003970621153712273
1659029068839583000,2.1895830078125,-0.05406153202056885,0.08391755074262619,0.010079269297420979
1659029068849252900,2.1992529296875,-0.13072505593299866,0.009086613543331623,-0.007024944759905338
1659029068858922800,2.2089228515625,-0.2162461280822754,-0.047723811119794846,-0.050090912729501724
1659029068868592400,2.21859228515625,-0.17043127119541168,-0.05199986323714256,-0.057726722210645676
1659029068878262300,2.22826220703125,-0.13164135813713074,-0.0345902182161808,-0.01649334840476513
1659029068887932000,2.237931884765625,-0.06230820715427399,0.028634287416934967,0.02871064469218254
1659029068897601800,2.247601806640625,-0.0409279391169548,-0.04589121788740158,-0.023212861269712448
1659029068907271700,2.257271728515625,-0.030543239787220955,-0.012293653562664986,-0.09040798991918564
1659029068916941300,2.26694140625,-0.014660755172371864,-0.03214675933122635,-0.04428769648075104
1659029068926611200,2.276611083984375,-0.047952886670827866,-0.01107192412018776,-0.003970621153712273
1659029068936281000,2.286281005859375,-0.07635809481143951,0.003894262947142124,-0.026572618633508682
1659029068945951000,2.295950927734375,-0.13927717506885529,-0.022678354755043983,0.017104214057326317
1659029068955620600,2.30562060546875,-0.07360920310020447,0.04909825697541237,0.026878049597144127
1659029068965290500,2.31529052734375,-0.04520399495959282,-0.02909243479371071,0.011300998739898205
1659029068974960000,2.324960205078125,-0.012522728182375431,0.0023671009112149477,0.011911863461136818
1659029068984630000,2.334630126953125,-0.01802051067352295,-0.013820815831422806,0.035735588520765305
1659029068994300000,2.3442998046875,-0.018631376326084137,0.03871355578303337,0.025350889191031456
1659029069003969500,2.353969482421875,-0.05222893878817558,-0.013820815831422806,0.04825831577181816
1659029069013639400,2.363639404296875,-0.05803215503692627,0.0191658828407526,0.029626941308379173
1659029069023309300,2.373309326171875,-0.07483093440532684,0.007254019379615784,0.029932374134659767
1659029069032979200,2.382979248046875,-0.11453714966773987,-0.03367391973733902,0.011300998739898205
1659029069042648800,2.39264892578125,-0.1185077652335167,-0.012904518283903599,0.014660755172371864
1659029069052318700,2.402318603515625,-0.12492185086011887,-0.0034361144062131643,0.026572618633508682
1659029069061988600,2.411988525390625,-0.10048725455999374,-0.04589121788740158,0.02107483521103859
1659029069071658200,2.421658203125,-0.11423171311616898,0.00755945174023509,0.019242240116000175
1659029069081328000,2.431328125,-0.08368847519159317,-0.004657844081521034,0.029932374134659767
1659029069090997800,2.440997802734375,-0.06047561392188072,0.006948587018996477,0.003665188793092966
1659029069100667600,2.450667724609375,-0.002443459117785096,-0.004657844081521034,0.012522728182375431
1659029069110337500,2.460337646484375,0.08888082206249237,0.010919207707047462,0.016187917441129684
1659029069120007200,2.470007080078125,0.1389717310667038,0.028634287416934967,0.004581485874950886
1659029069129677000,2.479677001953125,0.1695149689912796,-0.046807512640953064,-0.003359756199643016
1659029069139347000,2.489346923828125,0.1490510106086731,-0.012293653562664986,0.0015271619195118546
1659029069149016800,2.499016845703125,0.08643736690282822,0.003894262947142124,0.014966187067329884
1659029069158686500,2.5086865234375,0.0360410213470459,0.006948587018996477,0.021991131827235222
1659029069168356400,2.5183564453125,-0.014966187067329884,0.013668099418282509,0.002443459117785096
1659029069178026000,2.52802587890625,-0.030543239787220955,0.019471315667033195,0.020158538594841957
1659029069187695900,2.53769580078125,-0.0412333719432354,0.02649625949561596,0.025045456364750862
1659029069197365800,2.54736572265625,-0.028405211865901947,0.024663666263222694,0.016187917441129684
1659029069207035400,2.557035400390625,0.014966187067329884,0.020998476073145866,0.01954767294228077
1659029069216705300,2.566705322265625,0.035735588520765305,-0.0058795735239982605,0.023212861269712448
1659029069226375200,2.576375244140625,0.04825831577181816,0.00511599238961935,0.006108647678047419
1659029069236044800,2.586044921875,0.01954767294228077,-0.014431680552661419,-0.0009162971982732415
1659029069245714700,2.595714599609375,0.007941242307424545,0.009086613543331623,-0.019242240116000175
1659029069255384600,2.605384521484375,-0.016798781231045723,0.014278964139521122,0.004276053514331579
1659029069265054200,2.61505419921875,0.022296564653515816,0.022525638341903687,-0.0027488914784044027
1659029069274724000,2.62472412109375,0.02779434807598591,-0.022067490965127945,-0.040317077189683914
1659029069284394000,2.63439404296875,0.056199558079242706,-0.01626427471637726,-0.026572618633508682
1659029069294063600,2.644063720703125,0.018325943499803543,0.016416991129517555,0.0021380267571657896
1659029069303733500,2.6537333984375,-0.003359756199643016,0.05734493210911751,-0.001221729558892548
1659029069313403400,2.6634033203125,-0.04673115536570549,0.0011453714687377214,0.004276053514331579
1659029069323073000,2.673072998046875,-0.07605266571044922,0.013668099418282509,-0.02260199747979641
1659029069332743000,2.682742919921875,-0.06994401663541794,0.009392046369612217,-0.025045456364750862
1659029069342412500,2.69241259765625,-0.0766635313630104,0.03474293276667595,-0.0308486707508564
1659029069352082400,2.70208251953125,-0.06414080411195755,0.014889828860759735,-0.028405211865901947
1659029069361752300,2.71175244140625,-0.03848448023200035,0.03474293276667595,-0.04459312930703163
1659029069371422200,2.721422119140625,-0.08491020649671555,0.0524580143392086,-0.05497783049941063
1659029069381091800,2.731091796875,-0.04459312930703163,0.03565923124551773,-0.010995565913617611
1659029069390761700,2.74076171875,-0.04306596517562866,-0.008017600513994694,-0.02107483521103859
1659029069400431600,2.750431640625,-0.08368847519159317,-0.01779143698513508,-0.023823726922273636
1659029069410101200,2.760101318359375,-0.05436696484684944,0.011530072428286076,-0.007635809946805239
1659029069419771100,2.769771240234375,-0.0409279391169548,-0.007406735327094793,0.015577051788568497
1659029069429440800,2.779440673828125,-0.014660755172371864,0.00603228947147727,-0.004581485874950886
1659029069439110700,2.789110595703125,-0.010995565913617611,-0.005574141163378954,-0.006414080038666725
1659029069448780500,2.798780517578125,0.005192350596189499,0.024052800610661507,0.002443459117785096
1659029069458450400,2.808450439453125,0.014966187067329884,-0.03550651669502258,0.01435532234609127
1659029069468120000,2.8181201171875,-0.000305432389723137,-0.0022143847309052944,-0.020769402384757996
1659029069477790000,2.8277900390625,-0.029626941308379173,0.018860450014472008,-0.010690134018659592
1659029069487459800,2.8374599609375,-0.06414080411195755,-0.02909243479371071,-0.018631376326084137
1659029069497129500,2.84712939453125,-0.09865466505289078,0.03413207083940506,-0.025350889191031456
1659029069506799400,2.85679931640625,-0.07391463965177536,0.014584396965801716,-0.01282816007733345
1659029069516469000,2.866468994140625,-0.0565049909055233,0.01672242395579815,-0.021380268037319183
1659029069526139000,2.876138916015625,-0.01588248461484909,0.025274530053138733,0.005192350596189499
1659029069535808800,2.885808837890625,-0.023212861269712448,-0.006185005884617567,0.010384701192378998
1659029069545478400,2.895478515625,-0.05039634555578232,-0.013820815831422806,-0.003665188793092966
1659029069555148300,2.905148193359375,-0.1178968995809555,0.003894262947142124,-0.005803215317428112
1659029069564818200,2.914818115234375,-0.18845178186893463,-0.019929463043808937,0.036651886999607086
1659029069574488000,2.924488037109375,-0.21746785938739777,0.0319940410554409,0.029016077518463135
1659029069584157700,2.93415771484375,-0.23029601573944092,-0.013209951110184193,0.000610864779446274
1659029069593827600,2.94382763671875,-0.22815799713134766,-0.02848157100379467,0.021991131827235222
1659029069603497200,2.953497314453125,-0.23548837006092072,0.014278964139521122,0.033597562462091446
1659029069613167000,2.9631669921875,-0.2419024556875229,0.0035888305865228176,0.01588248461484909
1659029069622837000,2.9728369140625,-0.2055560052394867,0.007254019379615784,-0.0054977829568088055
1659029069632506600,2.982506591796875,-0.17134757339954376,-0.006490438245236874,0.007635809946805239
1659029069642176500,2.992176513671875,-0.1389717310667038,0.0011453714687377214,0.013744457624852657
1659029069651846400,3.001846435546875,-0.11239911615848541,0.00022907429956831038,0.029932374134659767
1659029069661516000,3.01151611328125,-0.10537417232990265,-0.004963276442140341,0.016798781231045723
1659029069671186000,3.02118603515625,-0.10354158282279968,0.011530072428286076,0.01802051067352295
1659029069680855800,3.030855712890625,-0.10751219838857651,0.023747367784380913,0.000610864779446274
1659029069690525700,3.040525634765625,-0.11392628401517868,0.0023671009112149477,0
1659029069700195300,3.0501953125,-0.09621120244264603,0.015500693581998348,-0.008857538923621178
1659029069709865200,3.059865234375,-0.12034036219120026,0.000839939049910754,0.003665188793092966
1659029069719534800,3.069534912109375,-0.07391463965177536,0.021609341725707054,0.0030543238390237093
1659029069729204700,3.079204833984375,-0.04825831577181816,-0.006490438245236874,0.01588248461484909
1659029069738874600,3.08887451171875,-0.02932151034474373,-0.003741546766832471,-0.010384701192378998
1659029069748544300,3.098544189453125,-0.021991131827235222,-0.010766491293907166,0.025045456364750862
1659029069758214100,3.108214111328125,-0.011911863461136818,0.05367974191904068,0.028405211865901947
1659029069767883800,3.1178837890625,0.014660755172371864,-0.007101302966475487,-0.007330377586185932
1659029069777554000,3.127553955078125,0.023518294095993042,-0.015042545273900032,-0.005192350596189499
1659029069787223600,3.1372236328125,0.011300998739898205,-0.0022143847309052944,0.011300998739898205
1659029069796893400,3.1468935546875,0.008552107028663158,0.020387612283229828,0.004886918235570192
1659029069806563000,3.15656298828125,0.04306596517562866,-0.03428478538990021,-0.014966187067329884
1659029069816233000,3.16623291015625,0.043982263654470444,0.00603228947147727,-0.009773836471140385
1659029069825902800,3.17590283203125,0.06261363625526428,-0.0012980876490473747,0.015271619893610477
1659029069835572500,3.185572509765625,0.09407317638397217,0.010919207707047462,-0.0009162971982732415
1659029069845242400,3.195242431640625,0.0769689604640007,-0.03306305781006813,0.007024944759905338
1659029069854912300,3.204912353515625,0.05803215503692627,-0.003741546766832471,0.006108647678047419
1659029069864582000,3.214581787109375,0.06933315098285675,0.0011453714687377214,-0.0021380267571657896
1659029069874251800,3.224251708984375,0.057726722210645676,0.004810560029000044,-0.014660755172371864
1659029069883921700,3.233921630859375,0.08460476994514465,-0.0016035200096666813,-0.015577051788568497
1659029069893591300,3.24359130859375,0.09010255336761475,0.02588539570569992,0.003665188793092966
1659029069903261200,3.25326123046875,0.14782927930355072,0.013668099418282509,0.007024944759905338
1659029069912931000,3.26293115234375,0.09498947113752365,-0.031230462715029716,-0.013439024798572063
1659029069922600700,3.2726005859375,0.06963858753442764,0.0011453714687377214,-0.003665188793092966
1659029069932270600,3.2822705078125,0.025961752980947495,-0.014126247726380825,0.008552107028663158
1659029069941940500,3.2919404296875,-0.025961752980947495,-0.0034361144062131643,-0.0030543238390237093
1659029069951610000,3.301610107421875,-0.047036588191986084,-0.06971494108438492,-0.017715077847242355
1659029069961280000,3.311280029296875,-0.06536252796649933,-0.00679587060585618,0.006108647678047419
1659029069970949600,3.32094970703125,-0.059864748269319534,-0.015958841890096664,0.01954767294228077
1659029069980619500,3.33061962890625,-0.02871064469218254,-0.02023489587008953,0.015271619893610477
1659029069990289400,3.340289306640625,-0.04367683082818985,0.010919207707047462,0.017715077847242355
1659029069999959300,3.349959228515625,-0.03756818547844887,0.01672242395579815,-0.009162971749901772
1659029070009629000,3.35962890625,-0.04886918142437935,0.03474293276667595,0.03298669680953026
1659029070019298800,3.369298828125,-0.04734202101826668,0.021914774551987648,0.01740964688360691
1659029070028968700,3.37896875,-0.056810423731803894,-0.011988221667706966,0.026572618633508682
1659029070038638300,3.388638427734375,-0.013744457624852657,0.020387612283229828,0.023212861269712448
1659029070048308200,3.39830810546875,-0.012217295356094837,-0.0009926552884280682,-0.017715077847242355
1659029070057977900,3.407977783203125,-0.02718348242342472,-0.055970486253499985,-0.015271619893610477
1659029070067647700,3.417647705078125,-0.05039634555578232,-0.015042545273900032,0.016798781231045723
1659029070077317600,3.427317626953125,-0.03176496922969818,-0.037949975579977036,-0.0009162971982732415
1659029070086987500,3.436987548828125,-0.006108647678047419,0.003283398225903511,0.04764745384454727
1659029070096657200,3.4466572265625,-0.009773836471140385,-0.03520108386874199,-0.02107483521103859
1659029070106327000,3.4563271484375,0.016798781231045723,-0.018402300775051117,0.012217295356094837
1659029070115997000,3.465996826171875,0.032681263983249664,0.0029779658652842045,-0.006414080038666725
1659029070125666600,3.47566650390625,0.006414080038666725,-0.03581194952130318,0.016187917441129684
1659029070135336400,3.48533642578125,-0.036651886999607086,0.003283398225903511,0.01954767294228077
1659029070145006000,3.495006103515625,-0.06811141967773438,-0.04589121788740158,-0.012217295356094837
1659029070154676000,3.504676025390625,-0.09712749719619751,0.01030834298580885,0.025045456364750862
1659029070164345900,3.514345947265625,-0.07880155742168427,-0.01626427471637726,-0.008246674202382565
1659029070174015500,3.524015380859375,-0.049480047076940536,-0.02023489587008953,-0.008246674202382565
1659029070183685400,3.533685302734375,-0.011911863461136818,-0.013209951110184193,-0.011300998739898205
1659029070193355300,3.543355224609375,0.050090912729501724,-0.02328922040760517,0.021380268037319183
1659029070203025200,3.553025146484375,0.07757982611656189,0.020082179456949234,0.005192350596189499
1659029070212694800,3.56269482421875,0.08949168771505356,-0.041004300117492676,-0.013133592903614044
1659029070222364700,3.57236474609375,0.09498947113752365,-0.04833467677235603,-0.020158538594841957
1659029070232034300,3.582034423828125,0.0461202897131443,-0.02909243479371071,0.000610864779446274
1659029070241704200,3.5917041015625,0.001832594396546483,-0.01870773360133171,-0.010995565913617611
1659029070251374000,3.6013740234375,-0.020158538594841957,0.001450803829357028,-0.023823726922273636
1659029070261043700,3.611043701171875,-0.03176496922969818,-0.04192059487104416,-0.0027488914784044027
1659029070270713600,3.620713623046875,-0.010995565913617611,0.014889828860759735,-0.003359756199643016
1659029070280383500,3.630383544921875,-0.021685699000954628,-0.0012980876490473747,0.0027488914784044027
1659029070290053400,3.640053466796875,0.009773836471140385,0.03321577236056328,-0.010690134018659592
1659029070299723000,3.649722900390625,0.010079269297420979,-0.016569707542657852,-0.037262752652168274
1659029070309393000,3.659392822265625,0.005803215317428112,-0.034895651042461395,-0.057726722210645676
1659029070319062500,3.6690625,-0.007941242307424545,-0.014431680552661419,-0.041844237595796585
1659029070328732400,3.678732421875,-0.010690134018659592,0.00755945174023509,-0.0204639695584774
1659029070338402300,3.68840234375,-0.024740023538470268,0.014584396965801716,-0.043371398001909256
1659029070348072000,3.698072021484375,0.01649334840476513,-0.04833467677235603,-0.04550942778587341
1659029070357741800,3.707741943359375,0.07635809481143951,-0.01626427471637726,-0.03451386094093323
1659029070367411700,3.71741162109375,0.06536252796649933,0.009697478264570236,-0.019242240116000175
1659029070377081600,3.72708154296875,0.0665842592716217,0.013973532244563103,-0.022907428443431854
1659029070386751200,3.736751220703125,0.014049889519810677,-0.030314164236187935,-0.03848448023200035
1659029070396421000,3.746421142578125,-0.044898562133312225,-0.007101302966475487,-0.020769402384757996
1659029070406091000,3.756091064453125,-0.0256563201546669,0.03932442143559456,0.009162971749901772
1659029070415760600,3.7657607421875,-0.05497783049941063,-0.029703300446271896,-0.003359756199643016
1659029070425430500,3.775430419921875,-0.08613193035125732,-0.01779143698513508,-0.043982263654470444
1659029070435100200,3.78510009765625,-0.05833758786320686,0.053985174745321274,-0.004886918235570192
1659029070444770000,3.79477001953125,-0.046425722539424896,-0.04039343446493149,-0.014966187067329884
1659029070454440000,3.80443994140625,-0.03634645417332649,0.0475710928440094,0.004276053514331579
1659029070464109600,3.814109619140625,-0.054672397673130035,-0.04589121788740158,-0.03176496922969818
1659029070473779500,3.823779541015625,-0.03695731982588768,-0.0031306820455938578,-0.05222893878817558
1659029070483449300,3.833449462890625,-0.06261363625526428,-0.0058795735239982605,-0.00946840364485979
1659029070493119200,3.843119140625,-0.07269290834665298,0.04787652567028999,-0.020158538594841957
1659029070502788900,3.852788818359375,-0.0668896958231926,-0.07215840369462967,-0.0412333719432354
1659029070512458800,3.862458740234375,-0.08124501258134842,0.003283398225903511,-0.023823726922273636
1659029070522128400,3.87212841796875,-0.05436696484684944,-0.003741546766832471,-0.0015271619195118546
1659029070531798300,3.88179833984375,-0.04245510324835777,0.009392046369612217,-0.022296564653515816
1659029070541468200,3.89146826171875,-0.016187917441129684,-0.018402300775051117,-0.031154103577136993
1659029070551137800,3.9011376953125,0.0054977829568088055,0.009697478264570236,-0.029932374134659767
1659029070560807700,3.9108076171875,0.04001164436340332,-0.0019089524867013097,-0.011911863461136818
1659029070570477600,3.9204775390625,0.06597339361906052,-0.005268708802759647,-0.014966187067329884
1659029070580147500,3.9301474609375,0.07086031138896942,0.01000291109085083,0.013133592903614044
1659029070589817000,3.939817138671875,0.054672397673130035,-0.019624030217528343,-0.0204639695584774
1659029070599487000,3.949487060546875,0.0412333719432354,-0.004352411720901728,-0.012217295356094837
1659029070609156600,3.959156494140625,0.025350889191031456,0.045738499611616135,-0.02718348242342472
1659029070618826500,3.968826416015625,0.0204639695584774,0.007864884100854397,-0.017715077847242355
1659029070628496400,3.978496337890625,0.07635809481143951,0.035964664071798325,0.025350889191031456
1659029070638166000,3.988166015625,0.08460476994514465,0.06620246917009354,0.013744457624852657
1659029070647836000,3.9978359375,0.07819069176912308,-0.041004300117492676,-0.019242240116000175
1659029070657505800,4.007505859375,0.06566796451807022,-0.03581194952130318,0.13439024984836578
1659029070667175700,4.01717578125,0.04917461425065994,0.17707443237304688,-0.09498947113752365
1659029070676845300,4.02684521484375,0.04825831577181816,-0.17722713947296143,-0.02779434807598591
1659029070686515200,4.03651513671875,0.026572618633508682,-0.01107192412018776,0.10995566099882126
1659029070696184800,4.046184814453125,-0.020158538594841957,0.1550832986831665,0.06811141967773438
1659029070705854700,4.055854736328125,-0.02871064469218254,-0.008017600513994694,-0.12492185086011887
1659029070715524600,4.065524658203125,-0.05436696484684944,-0.194025918841362,0.13622283935546875
1659029070725194200,4.0751943359375,-0.044898562133312225,0.2934441566467285,-0.07941242307424545
1659029070734864100,4.084864013671875,-0.02871064469218254,-0.10850485414266586,0.06627883017063141
1659029070744534000,4.094533935546875,0.0030543238390237093,-0.09934188425540924,0.06505709886550903
1659029070754204000,4.104203857421875,0.04825831577181816,0.2173915058374405,-0.16157373785972595
1659029070763873500,4.11387353515625,0.06902772188186646,-0.2703840136528015,0.27550002932548523
1659029070773543400,4.12354345703125,0.06719512492418289,0.21525347232818604,-0.1444695144891739
1659029070783213000,4.133213134765625,0.0766635313630104,-0.1417969912290573,0.19792018830776215
1659029070792883000,4.142883056640625,0.005192350596189499,0.06925679743289948,-0.15638138353824615
1659029070802552800,4.152552734375,-0.04917461425065994,-0.0859028622508049,0.205861434340477
1659029070812222500,4.162222412109375,-0.08124501258134842,0.11171189695596695,-0.0565049909055233
1659029070821892400,4.171892333984375,-0.08032871782779694,-0.03825540840625763,0.07971785217523575
1659029070831562200,4.181562255859375,-0.06200277432799339,-0.03153589367866516,0.04550942778587341
1659029070841232100,4.191232177734375,-0.013133592903614044,0.10102175921201706,-0.017104214057326317
1659029070850901800,4.20090185546875,0.05497783049941063,-0.004046979360282421,0.11606431007385254
1659029070860571600,4.210571533203125,0.14202606678009033,-0.02390008419752121,0.09987638890743256
1659029070870241300,4.2202412109375,0.2107483446598053,0.13339759409427643,-0.019853105768561363
1659029070879911200,4.2299111328125,0.28557929396629333,-0.00038179047987796366,0.008552107028663158
1659029070889581000,4.2395810546875,0.258395791053772,0.11507165431976318,0.11545344442129135
1659029070899250700,4.249250732421875,0.23945899307727814,0.14775292575359344,0.08429934084415436
1659029070908920600,4.258920654296875,0.18570289015769958,0.08452841639518738,0.013439024798572063
1659029070918590500,4.268590576171875,0.0873536616563797,0.09338594973087311,-0.0204639695584774
1659029070928260400,4.27826025390625,0.0668896958231926,0.06925679743289948,0.06108647957444191
1659029070937930000,4.287929931640625,-0.04734202101826668,-0.019013166427612305,0.19822561740875244
1659029070947600000,4.297599853515625,-0.02932151034474373,0.07506000995635986,0.09834922850131989
1659029070957269500,4.30726953125,-0.0308486707508564,0.009392046369612217,0.024740023538470268
1659029070966939400,4.316939453125,-0.04550942778587341,0.04176788032054901,0.025350889191031456
1659029070976609300,4.326609375,0.005803215317428112,-0.06940951198339462,0.14508038759231567
1659029070986279000,4.33627880859375,-0.002443459117785096,-0.1326340138912201,0.13255766034126282
1659029070995948800,4.34594873046875,-0.03695731982588768,0.013362666592001915,0.1185077652335167
1659029071005618700,4.35561865234375,-0.07635809481143951,0.0781143307685852,0.032681263983249664
1659029071015288600,4.36528857421875,-0.11759147047996521,0.004199695307761431,0.13775001466274261
1659029071024958200,4.374958251953125,-0.12553271651268005,-0.06727148592472076,0.2678641974925995
1659029071034628000,4.384628173828125,-0.10170898586511612,-0.06940951198339462,0.15515965223312378
1659029071044298000,4.394298095703125,-0.08765909820795059,0.1446985900402069,-0.10048725455999374
1659029071053967600,4.403967529296875,-0.053145237267017365,-0.0022143847309052944,0.06017018109560013
1659029071063637500,4.413637451171875,-0.043371398001909256,-0.19463679194450378,0.16340632736682892
1659029071073307100,4.42330712890625,-0.008857538923621178,0.05520690605044365,0.024434590712189674
1659029071082977000,4.43297705078125,0.043982263654470444,0.023136503994464874,0.0030543238390237093
1659029071092647000,4.44264697265625,0.0030543238390237093,-0.1472947746515274,0.2666424810886383
1659029071102316800,4.45231689453125,-0.000610864779446274,0.07047852128744125,0.07391463965177536
1659029071111986400,4.461986328125,-0.02412915788590908,0.014278964139521122,0.02871064469218254
1659029071121656300,4.47165625,0.08674279600381851,-0.044669486582279205,0.05742128938436508
1659029071131326200,4.481326171875,0.10354158282279968,0.03504836559295654,-0.020158538594841957
1659029071140995800,4.490995849609375,0.12767073512077332,-0.019624030217528343,-0.06108647957444191
1659029071150665700,4.500665771484375,0.189673513174057,-0.11369720846414566,0.08796452730894089
1659029071160335600,4.510335693359375,0.17348559200763702,0.06436987966299057,-0.0015271619195118546
1659029071170005200,4.520005126953125,0.16523891687393188,-0.00038179047987796366,0.07941242307424545
1659029071179675100,4.529675048828125,0.13133592903614044,-0.11491893976926804,0.18692462146282196
1659029071189345000,4.539344970703125,0.08368847519159317,0.11293362826108932,0.015577051788568497
1659029071199014700,4.5490146484375,0.053145237267017365,-0.02237292192876339,0.03298669680953026
1659029071208684500,4.5586845703125,0.1182023361325264,-0.0654388889670372,0.04978547990322113
1659029071218354400,4.5683544921875,0.14721840620040894,0.07567087560892105,-0.15546508133411407
1659029071228024000,4.578024169921875,0.19425499439239502,-0.07460185885429382,-0.014049889519810677
1659029071237694000,4.58769384765625,0.25992295145988464,-0.04039343446493149,-0.032681263983249664
1659029071247363800,4.59736376953125,0.26939135789871216,0.07567087560892105,-0.14263692498207092
1659029071257033500,4.607033447265625,0.25900667905807495,-0.051389001309871674,0.03451386094093323
1659029071266703400,4.616703369140625,0.21960589289665222,0.04543306678533554,-0.033597562462091446
1659029071276373200,4.626373291015625,0.17653992772102356,0.06620246917009354,-0.07910698652267456
1659029071286043000,4.63604296875,0.1585194170475006,0.013362666592001915,0.037262752652168274
1659029071295712800,4.645712646484375,0.20158538222312927,0.08025235682725906,-0.09865466505289078
1659029071305382700,4.655382568359375,0.30543237924575806,-0.009850194677710533,-0.12156209349632263
1659029071315052300,4.66505224609375,0.34574946761131287,0.0011453714687377214,-0.06505709886550903
1659029071324722200,4.67472216796875,0.3805687427520752,0.11079560220241547,-0.1798996776342392
1659029071334392000,4.68439208984375,0.44837474822998047,0.015500693581998348,-0.1597411334514618
1659029071344061700,4.694061767578125,0.43401941657066345,-0.02176205813884735,-0.15546508133411407
1659029071353731600,4.703731689453125,0.4459312856197357,0.011224640533328056,-0.24953825771808624
1659029071363401500,4.7134013671875,0.43401941657066345,-0.0034361144062131643,-0.2620609998703003
1659029071373071000,4.723071044921875,0.35582873225212097,-0.049250971525907516,-0.2968802750110626
1659029071382741000,4.732740966796875,0.3271180987358093,-0.04405862092971802,-0.32559093832969666
1659029071392411000,4.742410888671875,0.2632827162742615,0.03627009689807892,-0.383928507566452
1659029071402080800,4.752080810546875,0.2981020212173462,-0.04955640435218811,-0.4560105502605438
1659029071411750400,4.76175048828125,0.3078758418560028,-0.2294560819864273,-0.48533207178115845
1659029071421420300,4.771420166015625,0.3081812858581543,-0.30245441198349,-0.30146175622940063
1659029071431090000,4.78108984375,0.2926042377948761,-0.19677481055259705,-0.08460476994514465
1659029071440759800,4.790759765625,0.15668681263923645,0.08300124853849411,0.05803215503692627
1659029071450429700,4.8004296875,0.14233149588108063,0.11812597513198853,0.005803215317428112
1659029071460099300,4.810099365234375,0.01588248461484909,-0.19127702713012695,-0.09162971377372742
1659029071469769200,4.819769287109375,-0.07971785217523575,-0.18791727721691132,-0.0818558782339096
1659029071479439000,4.829439208984375,-0.12980876863002777,-0.06910407543182373,-0.08949168771505356
1659029071489109000,4.83910888671875,-0.23335035145282745,-0.19463679194450378,0.010079269297420979
1659029071498778600,4.848778564453125,-0.24801109731197357,-0.12957969307899475,0.026572618633508682
1659029071508448500,4.858448486328125,-0.26358816027641296,0.05673406645655632,-0.09040798991918564
1659029071518118400,4.868118408203125,-0.2813032269477844,-0.0077121676877141,0.010690134018659592
1659029071527788000,4.8777880859375,-0.2568686306476593,-0.0657443255186081,0.08643736690282822
1659029071537458000,4.8874580078125,-0.38667741417884827,-0.14698933064937592,-0.10170898586511612
1659029071547127800,4.8971279296875,-0.3909534513950348,-0.025732679292559624,-0.004886918235570192
1659029071556797400,4.90679736328125,-0.4712821841239929,-0.10178534686565399,0.1847866028547287
1659029071566467300,4.91646728515625,-0.4972439408302307,0.0319940410554409,-0.2159406989812851
1659029071576137200,4.92613720703125,-0.5806269645690918,-0.13965895771980286,0.21716243028640747
1659029071585806800,4.935806884765625,-0.6575959324836731,0.2683987021446228,-0.16126830875873566
1659029071595476700,4.945476806640625,-0.6505709886550903,0.03107774630188942,0.24373504519462585
1659029071605146600,4.955146728515625,-0.6887500286102295,-0.09750928729772568,-0.22785256803035736
1659029071614816300,4.964816162109375,-0.5934551358222961,-0.08529199659824371,0.3084867000579834
1659029071624486100,4.974486083984375,-0.5335903763771057,0.39912378787994385,-0.29046618938446045
1659029071634156000,4.984156005859375,-0.5112938284873962,-0.1472947746515274,0.3280344009399414
1659029071643825700,4.99382568359375,-0.3753764033317566,0.09552398324012756,-0.2764163017272949
1659029071653495600,5.00349560546875,-0.4831940531730652,-0.34093889594078064,0.10506874322891235
1659029071663165400,5.01316552734375,-0.41386088728904724,0.4574613571166992,0.164322629570961
1659029071672835000,5.0228349609375,-0.3399462401866913,0.20883940160274506,-0.19181154668331146
1659029071682505000,5.0325048828125,-0.30573782324790955,-0.4719693958759308,0.1127045527100563
1659029071692174800,5.0421748046875,-0.14660754799842834,0.21861323714256287,0.044898562133312225
1659029071701844700,5.0518447265625,-0.13744457066059113,0.10193806141614914,-0.09193515032529831
1659029071711514400,5.061514404296875,-0.1542433500289917,-0.2865719497203827,0.07880155742168427
1659029071721184300,5.071184326171875,-0.13164135813713074,0.2329685539007187,0.13561198115348816
1659029071730854000,5.08085400390625,-0.1695149689912796,0.06620246917009354,-0.12370011955499649
1659029071740523800,5.090523681640625,-0.21319180727005005,-0.331165075302124,-0.02932151034474373
1659029071750193700,5.100193603515625,-0.15057817101478577,0.16852232813835144,0.16676609218120575
1659029071759863300,5.10986328125,-0.05406153202056885,0.3090212345123291,-0.0461202897131443
1659029071769533200,5.119533203125,-0.11331541836261749,-0.37178757786750793,-0.02932151034474373
1659029071779203000,5.129203125,-0.12278381735086441,-0.029397867619991302,-0.013744457624852657
1659029071788873000,5.138873046875,-0.17226386070251465,0.19051344692707062,0.10445787757635117
1659029071798542600,5.14854248046875,-0.10934479534626007,0.22655446827411652,0.0513126403093338
1659029071808212500,5.15821240234375,-0.13439024984836578,-0.2554178237915039,-0.04001164436340332
1659029071817882000,5.167882080078125,-0.11667517572641373,0.01977674663066864,-0.02779434807598591
1659029071827552000,5.177552001953125,-0.1585194170475006,-0.0031306820455938578,-0.028099779039621353
1659029071837222000,5.187221923828125,-0.14049890637397766,-0.08987347781658173,0.043982263654470444
1659029071846891800,5.196891845703125,-0.0616973415017128,0.31207555532455444,0.1438586562871933
1659029071856561400,5.2065615234375,-0.09407317638397217,-0.0345902182161808,-0.06017018109560013
1659029071866231300,5.216231201171875,-0.1948658674955368,-0.203799769282341,-0.0204639695584774
1659029071875901200,5.225901123046875,-0.2360992431640625,0.18532110750675201,0.01588248461484909
1659029071885570800,5.23557080078125,-0.2257145345211029,-0.013515383005142212,-0.035735588520765305
1659029071895240700,5.24524072265625,-0.19150610268115997,-0.08834631741046906,-0.01802051067352295
1659029071904910300,5.254910400390625,-0.1948658674955368,0.021609341725707054,0.028099779039621353
1659029071914580500,5.26458056640625,-0.1334739476442337,0.14897464215755463,0.11636973917484283
1659029071924250000,5.27425,-0.09651663154363632,0.1706603467464447,-0.001221729558892548
1659029071933920000,5.283919921875,-0.10629047453403473,-0.2551124095916748,0.003665188793092966
1659029071943589600,5.293589599609375,-0.04153880476951599,0.1092684343457222,0.04581485688686371
1659029071953259500,5.303259521484375,-0.036651886999607086,0.053985174745321274,0.015577051788568497
1659029071962929400,5.312929443359375,0.006108647678047419,-0.12072215229272842,-0.0021380267571657896
1659029071972599000,5.32259912109375,0.029016077518463135,-0.033979352563619614,0.033597562462091446
1659029071982269000,5.33226904296875,-0.022907428443431854,0.034437503665685654,-0.03634645417332649
1659029071991938800,5.341938720703125,-0.07635809481143951,-0.037949975579977036,0.04001164436340332
1659029072001608700,5.351608642578125,-0.1444695144891739,0.12820523977279663,0.019242240116000175
1659029072011278300,5.3612783203125,-0.1539379209280014,-0.015958841890096664,-0.025961752980947495
1659029072020948200,5.3709482421875,-0.1285870373249054,0.011224640533328056,0.05039634555578232
1659029072030617900,5.380617919921875,-0.04367683082818985,0.10774127393960953,0.007024944759905338
1659029072040287700,5.390287841796875,0.04825831577181816,-0.04833467677235603,-0.002443459117785096
1659029072049957600,5.39995751953125,0.11698060482740402,0.014278964139521122,-0.03023780696094036
1659029072059627500,5.40962744140625,0.09376774728298187,-0.026038112118840218,-0.01588248461484909
1659029072069297200,5.419297119140625,0.13072505593299866,0.08422297984361649,0.12492185086011887
1659029072078967000,5.428967041015625,0.1542433500289917,0.3084103465080261,0.31673339009284973
1659029072088637000,5.438636962890625,0.06811141967773438,0.2372446060180664,-0.025045456364750862
1659029072098306600,5.448306640625,0.13011419773101807,-0.229150652885437,-0.0513126403093338
1659029072107976400,5.4579765625,0.16340632736682892,0.13706278800964355,0.03481929376721382
1659029072117646300,5.467646240234375,0.1594357043504715,-0.03917170315980911,0.019242240116000175
1659029072127316000,5.47731591796875,0.1597411334514618,0.00022907429956831038,0.04428769648075104
1659029072136985900,5.48698583984375,0.1948658674955368,0.03871355578303337,-0.04550942778587341
1659029072146655700,5.49665576171875,0.1230892539024353,-0.07735075056552887,0.05803215503692627
1659029072156325400,5.506325439453125,0.11331541836261749,0.11171189695596695,-0.028099779039621353
1659029072165995300,5.515995361328125,0.056199558079242706,-0.08254310488700867,0.018325943499803543
1659029072175665200,5.5256650390625,0.04550942778587341,0.048792824149131775,0.015271619893610477
1659029072185335000,5.5353349609375,0.03940077871084213,0.054901473224163055,-0.034208428114652634
1659029072195004700,5.545004638671875,-0.011911863461136818,-0.06971494108438492,-0.008246674202382565
1659029072204674600,5.554674560546875,0.013133592903614044,0.040546149015426636,0.006719512399286032
1659029072214344200,5.56434423828125,0.005192350596189499,0.04298960790038109,0.04001164436340332
1659029072224014000,5.57401416015625,0.04367683082818985,-0.011682788841426373,0.024434590712189674
1659029072233684000,5.58368408203125,0.0824667438864708,0.018555017188191414,0.03298669680953026
1659029072243353600,5.593353515625,0.06994401663541794,0.02496909722685814,-0.0256563201546669
1659029072253023500,5.6030234375,0.016187917441129684,-0.03764454275369644,-0.008246674202382565
1659029072262693400,5.612693359375,0.0030543238390237093,0.027717988938093185,-0.008246674202382565
1659029072272363300,5.62236328125,-0.011911863461136818,0.02802342176437378,-0.000305432389723137
1659029072282033000,5.632032958984375,-0.0030543238390237093,0.01672242395579815,-0.01954767294228077
1659029072291702800,5.641702880859375,0.07147117704153061,-0.005574141163378954,0.013439024798572063
1659029072301372700,5.65137255859375,0.11423171311616898,-0.00007635809743078426,-0.011606430634856224
1659029072311042600,5.66104248046875,0.13713914155960083,-0.0449749194085598,0.003359756199643016
1659029072320712200,5.670712158203125,0.12156209349632263,0.020387612283229828,-0.03390299528837204
1659029072330382000,5.680382080078125,0.04734202101826668,-0.02084576152265072,0.01954767294228077
1659029072340051700,5.6900517578125,0.004276053514331579,0.018860450014472008,0.0054977829568088055
1659029072349721600,5.6997216796875,-0.0717766135931015,0.012446369975805283,0.029016077518463135
1659029072359391500,5.7093916015625,-0.09498947113752365,0.019471315667033195,0.011911863461136818
1659029072369061000,5.71906103515625,-0.0873536616563797,0.02588539570569992,-0.021685699000954628
1659029072378731000,5.72873095703125,-0.07605266571044922,-0.01107192412018776,0.01954767294228077
1659029072388401000,5.73840087890625,-0.016798781231045723,0.0243582334369421,-0.024740023538470268
1659029072398070800,5.74807080078125,0.021380268037319183,0.00022907429956831038,0.0027488914784044027
1659029072407740400,5.757740478515625,0.026572618633508682,-0.039477135986089706,0.00946840364485979
1659029072417410300,5.767410400390625,0.04306596517562866,0.04940368980169296,0.002443459117785096
1659029072427080000,5.777079833984375,0.07024945318698883,0.01611155830323696,0.007330377586185932
1659029072436749800,5.786749755859375,0.1334739476442337,-0.04405862092971802,-0.04153880476951599
1659029072446419700,5.796419677734375,0.16768237948417664,-0.0006872228696011007,0.010079269297420979
1659029072456089600,5.806089599609375,0.1802051067352295,0.0017562361899763346,0.029626941308379173
1659029072465759200,5.81575927734375,0.24740023910999298,0.005421424750238657,-0.024434590712189674
1659029072475429000,5.82542919921875,0.19853104650974274,-0.029397867619991302,-0.004276053514331579
1659029072485099000,5.83509912109375,0.22693626582622528,0.05887209251523018,-0.011606430634856224
1659029072494768600,5.8447685546875,0.2461785078048706,0.014889828860759735,0.010995565913617611
1659029072504438500,5.8544384765625,0.2003636509180069,-0.019013166427612305,-0.001832594396546483
1659029072514108400,5.8641083984375,0.17104214429855347,0.025274530053138733,0.0054977829568088055
1659029072523778000,5.873778076171875,0.13194678723812103,0.011530072428286076,0.003665188793092966
1659029072533448000,5.883447998046875,0.06108647957444191,-0.015347977168858051,0.012217295356094837
1659029072543117800,5.893117919921875,0.05833758786320686,0.03413207083940506,0.017104214057326317
1659029072552787500,5.902787353515625,0.09437860548496246,0.004810560029000044,0.010384701192378998
1659029072562457300,5.912457275390625,0.12247838824987411,-0.006185005884617567,0.022907428443431854
1659029072572127200,5.922127197265625,0.12980876863002777,0.014889828860759735,0.000610864779446274
1659029072581797000,5.931797119140625,0.08765909820795059,-0.010766491293907166,0.001832594396546483
1659029072591466800,5.941466796875,0.061391908675432205,0.03993528336286545,0.010995565913617611
1659029072601136600,5.95113671875,0.023212861269712448,0.019471315667033195,0.010079269297420979
1659029072610806500,5.960806640625,0.00946840364485979,-0.004046979360282421,0.011911863461136818
1659029072620476200,5.97047607421875,-0.03481929376721382,0.02588539570569992,0.005803215317428112
1659029072630146000,5.98014599609375,-0.01802051067352295,0.011224640533328056,0.008857538923621178
1659029072639816000,5.98981591796875,-0.000610864779446274,0.030161447823047638,-0.002443459117785096
1659029072649485600,5.999485595703125,0.01282816007733345,0.047265663743019104,0.010690134018659592
1659029072659155500,6.009155517578125,0.04459312930703163,0.009392046369612217,-0.007024944759905338
1659029072668825300,6.018825439453125,0.03787361457943916,0.02802342176437378,-0.005803215317428112
1659029072678495000,6.028494873046875,-0.000610864779446274,0.012751801870763302,-0.015577051788568497
1659029072688164900,6.038164794921875,-0.06047561392188072,0.00511599238961935,-0.006414080038666725
1659029072697834800,6.047834716796875,-0.08491020649671555,0.026190826669335365,0.009162971749901772
1659029072707504600,6.057504638671875,-0.10079269111156464,0.06681333482265472,0.02260199747979641
1659029072717174300,6.06717431640625,-0.05283980444073677,0.037491824477910995,0.03298669680953026
1659029072726844200,6.07684423828125,0.011606430634856224,0.03107774630188942,0.022907428443431854
1659029072736513800,6.086513671875,0.11575887352228165,0.014889828860759735,0.006719512399286032
1659029072746183700,6.09618359375,0.13775001466274261,-0.02756527252495289,-0.003359756199643016
1659029072755853600,6.105853515625,0.12125665694475174,-0.027259841561317444,-0.023518294095993042
1659029072765523500,6.1155234375,0.056199558079242706,0.015195261687040329,0.001832594396546483
1659029072775193000,6.125193115234375,0.005803215317428112,0.053985174745321274,0.007635809946805239
1659029072784863000,6.134863037109375,-0.043982263654470444,0.023136503994464874,0.007024944759905338
1659029072794532900,6.144532958984375,-0.03634645417332649,0.02496909722685814,0.0015271619195118546
1659029072804202500,6.154202392578125,-0.028099779039621353,-0.01718057133257389,0.006719512399286032
1659029072813872400,6.163872314453125,0.06383536756038666,0.04329504072666168,-0.01649334840476513
1659029072823542300,6.173542236328125,0.07422006875276566,-0.06238456442952156,0.026878049597144127
1659029072833212000,6.1832119140625,0.008246674202382565,0.021609341725707054,0.0030543238390237093
1659029072842881800,6.1928818359375,-0.043982263654470444,-0.03245219215750694,0.007635809946805239
1659029072852551700,6.2025517578125,-0.0772743970155716,0.04176788032054901,-0.013744457624852657
1659029072862221300,6.21222119140625,-0.1282816082239151,0.03962985426187515,0.007941242307424545
1659029072871891200,6.22189111328125,-0.15241076052188873,0.054901473224163055,0.03909534588456154
1659029072881561000,6.23156103515625,-0.12400554865598679,0.024052800610661507,-0.0054977829568088055
1659029072891231000,6.24123095703125,-0.10720676928758621,-0.00923932995647192,-0.035735588520765305
1659029072900900600,6.250900634765625,-0.04276053607463837,-0.043142326176166534,-0.035735588520765305
1659029072910570500,6.260570556640625,-0.056199558079242706,0.006337722297757864,-0.006414080038666725
1659029072920240000,6.270240234375,-0.019853105768561363,0.05887209251523018,0.013439024798572063
1659029072929910300,6.27991015625,0.013133592903614044,0.006337722297757864,-0.027488915249705315
1659029072939580000,6.289579833984375,0.029932374134659767,-0.013820815831422806,-0.0412333719432354
1659029072949249800,6.299249755859375,0.0772743970155716,-0.06299543380737305,-0.04520399495959282
1659029072958919400,6.30891943359375,0.14233149588108063,0.08513928204774857,-0.000305432389723137
1659029072968589300,6.31858935546875,0.14477495849132538,0.04543306678533554,0.005803215317428112
1659029072978259200,6.32825927734375,0.14202606678009033,-0.04436405375599861,-0.07910698652267456
1659029072987929000,6.33792919921875,0.11911863088607788,-0.10728313028812408,-0.06108647957444191
1659029072997598700,6.3475986328125,0.10109812021255493,0.09980003535747528,0.016187917441129684
1659029073007268600,6.3572685546875,0.07330377399921417,0.030466880649328232,-0.01588248461484909
1659029073016938500,6.3669384765625,0.03390299528837204,-0.04802924394607544,-0.04062250629067421
1659029073026608000,6.376608154296875,0.02626718580722809,-0.021151192486286163,-0.037262752652168274
1659029073036278000,6.386278076171875,0.016187917441129684,0.03993528336286545,0.003359756199643016
1659029073045948000,6.395947998046875,0.023518294095993042,-0.0193185992538929,-0.018631376326084137
1659029073055617500,6.405617431640625,0.023823726922273636,-0.024510949850082397,-0.019242240116000175
1659029073065287400,6.415287353515625,0.024740023538470268,-0.0016035200096666813,-0.03848448023200035
1659029073074957300,6.424957275390625,0.019853105768561363,0.001450803829357028,-0.008552107028663158
1659029073084627000,6.434626953125,0.007941242307424545,0.07047852128744125,-0.021380268037319183
1659029073094296800,6.444296875,-0.009773836471140385,-0.0703258067369461,-0.033597562462091446
1659029073103966700,6.453966796875,0.02932151034474373,0.020082179456949234,-0.0308486707508564
1659029073113636600,6.46363671875,-0.0030543238390237093,0.026801692321896553,-0.016187917441129684
1659029073123306200,6.47330615234375,0.04734202101826668,-0.04558578506112099,-0.006414080038666725
1659029073132976000,6.48297607421875,0.06047561392188072,0.024663666263222694,0.02779434807598591
1659029073142645800,6.492645751953125,0.07574722915887833,-0.03367391973733902,0.026572618633508682
1659029073152316000,6.50231591796875,0.09712749719619751,-0.057497646659612656,0.024434590712189674
1659029073161985500,6.511985595703125,0.11423171311616898,-0.004963276442140341,0.007330377586185932
1659029073171655400,6.521655517578125,0.10170898586511612,-0.08987347781658173,0.003665188793092966
1659029073181325000,6.531324951171875,0.11575887352228165,-0.04192059487104416,0.03909534588456154
1659029073190995000,6.540994873046875,0.10231985151767731,0.029245151206851006,0.06383536756038666
1659029073200664800,6.550664794921875,0.05039634555578232,0.015195261687040329,-0.000610864779446274
1659029073210334700,6.560334716796875,-0.035735588520765305,-0.03672824427485466,-0.03237583488225937
1659029073220004400,6.57000439453125,-0.11331541836261749,-0.038560837507247925,-0.0308486707508564
1659029073229674200,6.57967431640625,-0.17776164412498474,0.04909825697541237,0.01649334840476513
1659029073239344000,6.58934423828125,-0.2049451321363449,-0.0009926552884280682,0.06811141967773438
1659029073249013800,6.599013671875,-0.18234314024448395,0.08666644245386124,0.05406153202056885
1659029073258683600,6.60868359375,-0.2101374864578247,0.0005345066892914474,-0.0021380267571657896
1659029073268353500,6.618353515625,-0.1496618688106537,-0.026343543082475662,-0.028099779039621353
1659029073278023200,6.628023193359375,-0.16035200655460358,0.012751801870763302,-0.0717766135931015
1659029073287693000,6.637693115234375,-0.18875721096992493,-0.047723811119794846,-0.07971785217523575
1659029073297363000,6.647363037109375,-0.22266021370887756,-0.02695440873503685,-0.040317077189683914
1659029073307032600,6.657032470703125,-0.2367101013660431,0.053985174745321274,-0.009162971749901772
1659029073316702500,6.666702392578125,-0.26969680190086365,0.08666644245386124,-0.012217295356094837
1659029073326372400,6.676372314453125,-0.23212862014770508,-0.046807512640953064,-0.046425722539424896
1659029073336042200,6.686042236328125,-0.22174391150474548,-0.024205517023801804,-0.07574722915887833
1659029073345711900,6.6957119140625,-0.20402882993221283,-0.0859028622508049,-0.0616973415017128
1659029073355381800,6.7053818359375,-0.17226386070251465,0.014889828860759735,-0.02932151034474373
1659029073365051400,6.715051513671875,-0.12064579129219055,-0.008933897130191326,0.0015271619195118546
1659029073374721300,6.72472119140625,-0.06566796451807022,0.01611155830323696,-0.015577051788568497
1659029073384391200,6.73439111328125,-0.0360410213470459,-0.019624030217528343,-0.038789913058280945
1659029073394061000,6.74406103515625,-0.024434590712189674,-0.13385574519634247,-0.05253437161445618
1659029073403730700,6.753730712890625,-0.06750056147575378,0.017333287745714188,-0.043371398001909256
1659029073413400600,6.763400634765625,-0.05742128938436508,-0.02695440873503685,-0.017715077847242355
1659029073423070500,6.773070556640625,-0.11484257876873016,-0.022678354755043983,-0.007330377586185932
1659029073432740400,6.782740234375,-0.15179990231990814,0.040546149015426636,-0.056199558079242706
1659029073442410000,6.792409912109375,-0.1539379209280014,-0.03550651669502258,0.04550942778587341
1659029073452079900,6.802079833984375,-0.12034036219120026,0.011224640533328056,-0.06872228533029556
1659029073461749500,6.81174951171875,-0.12980876863002777,-0.07124210149049759,-0.06291907280683517
1659029073471419400,6.82141943359375,-0.08765909820795059,-0.0019089524867013097,-0.09896009415388107
1659029073481089300,6.83108935546875,-0.024434590712189674,-0.10697769373655319,-0.08979712426662445
1659029073490759200,6.84075927734375,-0.060781046748161316,0.03168861195445061,-0.018631376326084137
1659029073500428800,6.8504287109375,-0.07116574794054031,0.08086322247982025,0.03909534588456154
1659029073510098700,6.8600986328125,-0.06536252796649933,0.02741255611181259,-0.016187917441129684
1659029073519768600,6.8697685546875,-0.07116574794054031,-0.015347977168858051,-0.0015271619195118546
1659029073529438500,6.8794384765625,-0.09285144507884979,-0.011988221667706966,-0.014049889519810677
1659029073539108000,6.889108154296875,-0.09071341902017593,0.024052800610661507,0.0204639695584774
1659029073548778000,6.898778076171875,-0.0665842592716217,0.028328854590654373,-0.01954767294228077
1659029073558447900,6.90844775390625,-0.015577051788568497,-0.07704532146453857,-0.030543239787220955
1659029073568117500,6.918117431640625,0.03817904740571976,-0.041004300117492676,-0.0054977829568088055
1659029073577787400,6.927787353515625,0.04428769648075104,-0.0006872228696011007,-0.02260199747979641
1659029073587457300,6.937457275390625,0.04062250629067421,-0.03367391973733902,0.0027488914784044027
1659029073597127000,6.947126953125,0.08521563559770584,-0.03153589367866516,0.01588248461484909
1659029073606796800,6.956796875,0.026572618633508682,-0.0449749194085598,-0.004581485874950886
1659029073616466700,6.966466796875,0.023823726922273636,-0.011988221667706966,-0.007330377586185932
1659029073626136300,6.97613623046875,0.0256563201546669,-0.03886627033352852,-0.004581485874950886
1659029073635806200,6.98580615234375,-0.021991131827235222,-0.030314164236187935,-0.015577051788568497
1659029073645476000,6.99547607421875,-0.07055488228797913,-0.019624030217528343,-0.000305432389723137
1659029073655146000,7.00514599609375,-0.07544180005788803,-0.02390008419752121,-0.004276053514331579
1659029073664815600,7.014815673828125,-0.1542433500289917,0.00511599238961935,0.010384701192378998
1659029073674485500,7.024485595703125,-0.164322629570961,0.024052800610661507,-0.013744457624852657
1659029073684155400,7.0341552734375,-0.11698060482740402,0.01183550525456667,0.023212861269712448
1659029073693825000,7.043824951171875,-0.04550942778587341,0.000839939049910754,-0.005192350596189499
1659029073703495000,7.053494873046875,0.05070177838206291,0.047265663743019104,-0.0021380267571657896
1659029073713164800,7.063164794921875,0.14660754799842834,-0.0012980876490473747,0.04306596517562866
1659029073722834400,7.07283447265625,0.18814635276794434,-0.004963276442140341,0.026878049597144127
1659029073732504300,7.08250439453125,0.22724169492721558,0.0017562361899763346,0.038789913058280945
1659029073742174200,7.09217431640625,0.33658650517463684,-0.049250971525907516,0.08368847519159317
1659029073751844000,7.101843994140625,0.3906480371952057,0.06467530876398087,0.006108647678047419
1659029073761513700,7.111513671875,0.41325002908706665,0.0029779658652842045,0.026572618633508682
1659029073771183600,7.12118359375,0.40286532044410706,0.03321577236056328,0.056810423731803894
1659029073780853500,7.130853515625,0.34636032581329346,0.08666644245386124,0.01893680728971958
1659029073790523400,7.1405234375,0.2761108875274658,0.06131555140018463,0.08796452730894089
1659029073800193000,7.150193115234375,0.22327107191085815,0.05917752534151077,0.07391463965177536
1659029073809863000,7.15986279296875,0.17195843160152435,0.07414371520280838,0.056199558079242706
1659029073819532500,7.169532470703125,0.10598503798246384,0.10163262486457825,0.09529490768909454
1659029073829202400,7.179202392578125,0.07635809481143951,0.042684175074100494,0.05406153202056885
1659029073838872300,7.188872314453125,0.07971785217523575,0.04024071618914604,0.08796452730894089
1659029073848542200,7.198542236328125,0.06536252796649933,0.05948295816779137,0.0821613147854805
1659029073858211800,7.2082119140625,0.09040798991918564,0.0023671009112149477,0.04886918142437935
1659029073867881700,7.2178818359375,0.11362084746360779,-0.006490438245236874,0.061391908675432205
1659029073877551600,7.227551513671875,0.11056652665138245,0.0005345066892914474,0.03237583488225937
1659029073887221500,7.237221435546875,0.09926552325487137,-0.0019089524867013097,0.05192350596189499
1659029073896891100,7.24689111328125,0.0717766135931015,-0.03000873140990734,-0.0030543238390237093
1659029073906561000,7.25656103515625,0.08674279600381851,-0.03306305781006813,-0.01740964688360691
1659029073916230700,7.266230712890625,0.0821613147854805,-0.07368556410074234,-0.009773836471140385
1659029073925900500,7.275900634765625,0.09193515032529831,-0.02756527252495289,0.0204639695584774
1659029073935570400,7.2855703125,0.1178968995809555,-0.026343543082475662,0.0461202897131443
1659029073945240300,7.295240234375,0.05864302068948746,-0.024205517023801804,0.03237583488225937
1659029073954910000,7.304909912109375,-0.017715077847242355,-0.02390008419752121,0.024434590712189674
1659029073964579800,7.314579833984375,-0.053756099194288254,-0.0345902182161808,0.011300998739898205
1659029073974249700,7.324249755859375,-0.10445787757635117,-0.03733910992741585,0.0360410213470459
1659029073983919600,7.333919677734375,-0.09162971377372742,-0.03520108386874199,0.059864748269319534
1659029073993589200,7.34358935546875,-0.03298669680953026,0.044211339205503464,0.0873536616563797
1659029074003259100,7.353259033203125,0.009773836471140385,0.013057234697043896,0.10140355676412582
1659029074012929000,7.362928955078125,0.024434590712189674,-0.004352411720901728,-0.003359756199643016
1659029074022598700,7.3725986328125,0.025045456364750862,-0.11522436887025833,-0.038789913058280945
1659029074032268500,7.3822685546875,-0.003970621153712273,-0.0703258067369461,-0.010384701192378998
1659029074041938400,7.3919384765625,-0.02260199747979641,-0.017486004158854485,0.027488915249705315
1659029074051608000,7.401608154296875,-0.0409279391169548,0.0732274129986763,0.032681263983249664
1659029074061278000,7.41127783203125,-0.0204639695584774,-0.025121813639998436,-0.0015271619195118546
1659029074070947800,7.42094775390625,0.012217295356094837,-0.04589121788740158,-0.015577051788568497
1659029074080617500,7.430617431640625,0.01588248461484909,-0.028787001967430115,-0.03298669680953026
1659029074090287400,7.440287353515625,0.01588248461484909,-0.026648975908756256,-0.000305432389723137
1659029074099957200,7.449957275390625,0.000610864779446274,0.003894262947142124,-0.000305432389723137
1659029074109627100,7.459627197265625,-0.021685699000954628,0.003283398225903511,-0.02718348242342472
1659029074119296800,7.469296875,-0.046425722539424896,-0.034895651042461395,-0.014660755172371864
1659029074128966700,7.478966552734375,-0.06536252796649933,-0.008628465235233307,-0.03543015569448471
1659029074138636500,7.488636474609375,-0.11026109009981155,-0.0077121676877141,-0.015577051788568497
1659029074148306200,7.49830615234375,-0.0720820426940918,-0.0012980876490473747,-0.02260199747979641
1659029074157976000,7.50797607421875,-0.021991131827235222,0.0057268571108579636,-0.025045456364750862
1659029074167646000,7.51764599609375,0.06750056147575378,-0.008017600513994694,-0.028405211865901947
1659029074177315600,7.527315673828125,0.0717766135931015,-0.024816380813717842,-0.019853105768561363
1659029074186985500,7.5369853515625,0.07880155742168427,0.004199695307761431,-0.033597562462091446
1659029074196655400,7.5466552734375,0.07086031138896942,-0.01565340906381607,-0.028405211865901947
1659029074206325200,7.5563251953125,0.10995566099882126,0.01000291109085083,-0.04245510324835777
1659029074215995000,7.565994873046875,0.11881320178508759,-0.00007635809743078426,-0.025961752980947495
1659029074225664800,7.575664794921875,0.18723005056381226,0.006948587018996477,-0.046425722539424896
1659029074235334700,7.585334716796875,0.20647229254245758,-0.04558578506112099,-0.013133592903614044
1659029074245004500,7.595004638671875,0.24984370172023773,0.014278964139521122,-0.03756818547844887
1659029074254674200,7.604674072265625,0.10140355676412582,-0.031230462715029716,-0.021380268037319183
1659029074264344000,7.614343994140625,0.08888082206249237,0.01672242395579815,-0.013439024798572063
1659029074274013700,7.624013671875,0.04978547990322113,0.020082179456949234,-0.024740023538470268
1659029074283683600,7.63368359375,0.05253437161445618,0.04024071618914604,-0.02779434807598591
1659029074293353500,7.643353515625,0.053756099194288254,-0.03581194952130318,-0.07513637095689774
1659029074303023400,7.6530234375,0.12400554865598679,0.09033162891864777,0.03298669680953026
1659029074312693000,7.66269287109375,0.09957095980644226,0.0191658828407526,-0.04367683082818985
1659029074322363000,7.67236279296875,0.0977383628487587,-0.003741546766832471,-0.010079269297420979
1659029074332032800,7.68203271484375,0.05528326332569122,0.04543306678533554,-0.034208428114652634
1659029074341702700,7.69170263671875,0.019242240116000175,0.05215258151292801,-0.02932151034474373
1659029074351372300,7.701372314453125,0.011606430634856224,0.058566659688949585,-0.015577051788568497
1659029074361042200,7.711042236328125,0.03848448023200035,0.029856016859412193,-0.010995565913617611
1659029074370711800,7.7207119140625,0.05345066636800766,0.050319984555244446,-0.025045456364750862
1659029074380381700,7.730381591796875,0.09376774728298187,0.002061668550595641,-0.02412915788590908
1659029074390051600,7.740051513671875,0.09407317638397217,0.011530072428286076,-0.01802051067352295
1659029074399721500,7.749721435546875,0.11667517572641373,0.05673406645655632,-0.006108647678047419
1659029074409391000,7.75939111328125,0.1078176349401474,0.018555017188191414,0.003665188793092966
1659029074419061000,7.76906103515625,0.08063415437936783,0.004505127668380737,0.000610864779446274
1659029074428731000,7.77873095703125,0.0922405794262886,-0.0012980876490473747,-0.009773836471140385
1659029074438400800,7.78840087890625,0.06352993845939636,0.02283107116818428,0.01435532234609127
1659029074448070400,7.7980703125,0.05711585655808449,-0.008628465235233307,0.027488915249705315
1659029074457740300,7.807740234375,0.08888082206249237,-0.006185005884617567,0.01802051067352295
1659029074467410200,7.81741015625,0.09651663154363632,-0.022067490965127945,0.0009162971982732415
1659029074477080000,7.827080078125,0.08307760953903198,0.004199695307761431,0.026878049597144127
1659029074486749700,7.836749755859375,0.01649334840476513,0.010919207707047462,0.023823726922273636
1659029074496419600,7.846419677734375,-0.01588248461484909,0.04634936526417732,-0.029932374134659767
1659029074506089200,7.856089111328125,-0.04367683082818985,-0.013820815831422806,0.04917461425065994
1659029074515759000,7.865759033203125,-0.04673115536570549,0.04298960790038109,-0.025045456364750862
1659029074525429000,7.875428955078125,-0.02260199747979641,0.03321577236056328,0.03756818547844887
1659029074535099000,7.885098876953125,0.056810423731803894,0.033826638013124466,0.0720820426940918
1659029074544768500,7.8947685546875,-0.05070177838206291,0.0319940410554409,0.013439024798572063
1659029074554438400,7.9044384765625,-0.03543015569448471,-0.020540328696370125,0.014049889519810677
1659029074564108300,7.9141083984375,-0.05955931544303894,0.023441936820745468,-0.00946840364485979
1659029074573778200,7.923778076171875,-0.05925388261675835,0.013973532244563103,0.06352993845939636
1659029074583447800,7.93344775390625,-0.03298669680953026,0.06467530876398087,0.056810423731803894
1659029074593117700,7.94311767578125,-0.019853105768561363,-0.00679587060585618,0.01588248461484909
1659029074602787300,7.952787353515625,0.018631376326084137,0.03321577236056328,0.010995565913617611
1659029074612457200,7.962457275390625,0.021685699000954628,0.010613775812089443,-0.0027488914784044027
1659029074622127000,7.972127197265625,0.008552107028663158,0.0423787422478199,0.013133592903614044
1659029074631797000,7.981796875,0.023212861269712448,0.0371863916516304,0.043982263654470444
1659029074641466600,7.991466552734375,0.056199558079242706,0.021914774551987648,0.029932374134659767
1659029074651136500,8.001136474609375,0.04306596517562866,0.014584396965801716,0.003665188793092966
1659029074660806400,8.010806396484375,0.06444623321294785,0.00511599238961935,-0.017715077847242355
1659029074670476300,8.020476318359375,0.043371398001909256,-0.024816380813717842,-0.01282816007733345
1659029074680146000,8.03014599609375,0.03329212963581085,0.03413207083940506,0.010384701192378998
1659029074689815800,8.03981591796875,0.018631376326084137,0.030161447823047638,0.010384701192378998
1659029074699485700,8.049485595703125,0.07360920310020447,0.017027854919433594,-0.007024944759905338
1659029074709155600,8.059155517578125,0.041844237595796585,-0.0009926552884280682,-0.028405211865901947
1659029074718825200,8.0688251953125,0.04886918142437935,-0.017486004158854485,-0.043982263654470444
1659029074728495000,8.0784951171875,0.06017018109560013,-0.05169443041086197,0.001832594396546483
1659029074738164700,8.088164794921875,0.06200277432799339,0.024052800610661507,0.0027488914784044027
1659029074747834600,8.097834716796875,0.07971785217523575,0.023136503994464874,0.007024944759905338
1659029074757504500,8.10750439453125,0.04550942778587341,-0.015347977168858051,-0.021991131827235222
1659029074767174400,8.11717431640625,0.023823726922273636,-0.031841326504945755,-0.04550942778587341
1659029074776844000,8.126843994140625,0.013133592903614044,-0.025121813639998436,-0.03329212963581085
1659029074786514000,8.136513916015625,-0.032070402055978775,0.004810560029000044,-0.005803215317428112
1659029074796183800,8.146183837890625,-0.044898562133312225,0.053374309092760086,0.0054977829568088055
1659029074805853700,8.155853759765625,-0.05222893878817558,-0.010766491293907166,-0.02718348242342472
1659029074815523300,8.1655234375,-0.061391908675432205,-0.026648975908756256,-0.03940077871084213
1659029074825193200,8.175193115234375,-0.01893680728971958,-0.010155626572668552,-0.007635809946805239
1659029074834863000,8.184863037109375,0.023518294095993042,0.03260490670800209,0.000610864779446274
1659029074844532700,8.19453271484375,0.03329212963581085,-0.037949975579977036,-0.01893680728971958
1659029074854202600,8.20420263671875,0.02260199747979641,-0.05108356848359108,-0.05345066636800766
1659029074863872500,8.21387255859375,-0.006414080038666725,-0.03917170315980911,-0.03481929376721382
1659029074873542100,8.223542236328125,-0.0308486707508564,0.01030834298580885,-0.012217295356094837
1659029074883212000,8.2332119140625,-0.047036588191986084,0.01183550525456667,-0.013133592903614044
1659029074892882000,8.2428818359375,-0.09315688163042068,-0.010461059398949146,-0.02718348242342472
1659029074902551800,8.2525517578125,-0.0772743970155716,0.023441936820745468,-0.001221729558892548
1659029074912221400,8.262221435546875,-0.014966187067329884,-0.008017600513994694,-0.04459312930703163
1659029074921891300,8.271891357421875,0.09590577334165573,0.0011453714687377214,-0.006719512399286032
1659029074931561200,8.281561279296875,0.12767073512077332,-0.0012980876490473747,0.006719512399286032
1659029074941231000,8.291231201171875,0.10965022444725037,-0.007101302966475487,-0.005192350596189499
1659029074950900700,8.300900634765625,0.08429934084415436,-0.027870705351233482,-0.004886918235570192
1659029074960570600,8.310570556640625,-0.00946840364485979,-0.018096869811415672,-0.01954767294228077
1659029074970240500,8.320240478515625,-0.04276053607463837,0.0371863916516304,0.006414080038666725
1659029074979910100,8.32991015625,-0.06200277432799339,0.026190826669335365,0.006719512399286032
1659029074989580000,8.339580078125,-0.07849612087011337,-0.025121813639998436,-0.03298669680953026
1659029074999250000,8.34925,-0.03940077871084213,0.015195261687040329,0.015577051788568497
1659029075008919600,8.35891943359375,0.0009162971982732415,0.003283398225903511,-0.012522728182375431
1659029075018589400,8.36858935546875,0.05833758786320686,-0.007406735327094793,0.004886918235570192
1659029075028259300,8.37825927734375,0.08338304609060287,-0.034895651042461395,-0.021991131827235222
1659029075037929200,8.38792919921875,0.12370011955499649,-0.00679587060585618,-0.013439024798572063
1659029075047598800,8.397598876953126,0.07605266571044922,0.012140937149524689,0.01435532234609127
1659029075057268700,8.407268798828126,0.028405211865901947,-0.0022143847309052944,0.006719512399286032
1659029075066938600,8.416938720703126,0.02260199747979641,0.00511599238961935,0.007330377586185932
1659029075076608300,8.426608154296876,-0.04520399495959282,-0.014431680552661419,-0.000305432389723137
1659029075086278100,8.436278076171876,-0.10506874322891235,0.005421424750238657,-0.013439024798572063
1659029075095948000,8.445947998046876,-0.13164135813713074,0.01824958436191082,0.04978547990322113
1659029075105618000,8.455617919921876,-0.16004657745361328,0.01824958436191082,0.018325943499803543
1659029075115287600,8.46528759765625,-0.17073670029640198,-0.014737112447619438,-0.04367683082818985
1659029075124957400,8.47495751953125,-0.19639302790164948,-0.018096869811415672,-0.016798781231045723
1659029075134627300,8.48462744140625,-0.14019346237182617,0.023747367784380913,0.02260199747979641
1659029075144297000,8.494296875,-0.12492185086011887,-0.0012980876490473747,0.01802051067352295
1659029075153966800,8.503966796875,-0.0616973415017128,-0.02023489587008953,-0.021380268037319183
1659029075163636700,8.51363671875,-0.02932151034474373,0.04482220485806465,-0.0015271619195118546
1659029075173306600,8.523306640625,0.025045456364750862,0.006948587018996477,0.01954767294228077
1659029075182976300,8.532976318359376,0.06047561392188072,-0.0009926552884280682,0.024740023538470268
1659029075192646100,8.542646240234374,0.01740964688360691,0.0319940410554409,-0.01588248461484909
1659029075202316000,8.55231591796875,0.010384701192378998,0.014889828860759735,-0.03817904740571976
1659029075211985700,8.561985595703124,-0.02626718580722809,-0.018096869811415672,0.0054977829568088055
1659029075221655600,8.571655517578124,-0.01588248461484909,0.003894262947142124,0.03940077871084213
1659029075231325400,8.581325439453124,-0.023518294095993042,0.060093823820352554,0.01435532234609127
1659029075240995300,8.590995361328124,-0.05253437161445618,-0.0553596206009388,-0.008246674202382565
1659029075250665000,8.6006650390625,-0.032681263983249664,0.020082179456949234,-0.009162971749901772
1659029075260334800,8.6103349609375,-0.014966187067329884,-0.037949975579977036,0
1659029075270004700,8.620004638671874,-0.08124501258134842,-0.00038179047987796366,0.022907428443431854
1659029075279674600,8.629674560546874,-0.06352993845939636,0.0680350661277771,-0.02260199747979641
1659029075289344300,8.63934423828125,-0.0256563201546669,-0.07276926934719086,-0.014966187067329884
1659029075299014100,8.64901416015625,-0.05100720748305321,0.023747367784380913,-0.017104214057326317
1659029075308683800,8.658683837890624,-0.03756818547844887,0.05948295816779137,0.018325943499803543
1659029075318353700,8.668353759765624,-0.048563748598098755,-0.01107192412018776,0.013744457624852657
1659029075328023600,8.6780234375,-0.04306596517562866,0.047265663743019104,-0.013744457624852657
1659029075337693400,8.687693359375,-0.03481929376721382,-0.03214675933122635,-0.000610864779446274
1659029075347363000,8.697363037109374,0.013133592903614044,0.03138317912817001,0.011911863461136818
1659029075357033000,8.707032958984374,0.024740023538470268,-0.04436405375599861,-0.0308486707508564
1659029075366702800,8.716702880859375,0.07849612087011337,-0.029703300446271896,0.009162971749901772
1659029075376372700,8.726372802734375,0.05955931544303894,-0.019624030217528343,-0.004581485874950886
1659029075386042400,8.73604248046875,0.09346231073141098,0.014278964139521122,0.004276053514331579
1659029075395712300,8.745712158203125,0.09010255336761475,-0.047723811119794846,-0.003970621153712273
1659029075405382100,8.755382080078125,0.12064579129219055,0.029856016859412193,-0.0054977829568088055
1659029075415052000,8.765052001953125,0.10567960888147354,0.00022907429956831038,0.006108647678047419
1659029075424721700,8.7747216796875,0.1334739476442337,-0.013515383005142212,0.019853105768561363
1659029075434391600,8.7843916015625,0.1130099818110466,-0.008017600513994694,-0.007941242307424545
1659029075444061200,8.794061279296875,0.06627883017063141,-0.006490438245236874,-0.01649334840476513
1659029075453731000,8.80373095703125,0.09529490768909454,-0.011988221667706966,-0.0027488914784044027
1659029075463401000,8.81340087890625,0.08124501258134842,-0.004657844081521034,-0.017715077847242355
1659029075473070800,8.82307080078125,0.03390299528837204,-0.03733910992741585,-0.028099779039621353
1659029075482740500,8.832740478515625,0.013439024798572063,0.022525638341903687,-0.03145953640341759
1659029075492410400,8.842410400390625,-0.020158538594841957,-0.05322159454226494,-0.044898562133312225
1659029075502080300,8.852080322265625,-0.012217295356094837,-0.00007635809743078426,-0.029626941308379173
1659029075511750100,8.861750244140625,-0.01649334840476513,0.007864884100854397,0.003359756199643016
1659029075521419800,8.871419677734375,-0.009773836471140385,0.0023671009112149477,-0.04001164436340332
1659029075531089700,8.881089599609375,0.018631376326084137,0.053374309092760086,0.0030543238390237093
1659029075540759600,8.890759521484375,0.000305432389723137,0.00022907429956831038,0.005192350596189499
1659029075550429400,8.900429443359375,0.03848448023200035,0.028634287416934967,0.010079269297420979
1659029075560099000,8.91009912109375,0.05406153202056885,0.011530072428286076,0.012522728182375431
1659029075569769000,8.91976904296875,0.0720820426940918,-0.0025198173243552446,-0.01893680728971958
1659029075579438600,8.9294384765625,0.06047561392188072,-0.0193185992538929,-0.000610864779446274
1659029075589108500,8.9391083984375,0.004276053514331579,-0.008017600513994694,-0.0308486707508564
1659029075598778400,8.9487783203125,0.0027488914784044027,0.04482220485806465,0.017104214057326317
1659029075608448300,8.9584482421875,-0.05253437161445618,0.005421424750238657,0.008857538923621178
1659029075618118000,8.968117919921875,-0.029016077518463135,0.018860450014472008,0.004581485874950886
1659029075627787800,8.977787841796875,-0.011911863461136818,0.008170315995812416,-0.0030543238390237093
1659029075637457700,8.987457763671875,0.04581485688686371,-0.005574141163378954,-0.008857538923621178
1659029075647127600,8.99712744140625,0.05100720748305321,0.007864884100854397,-0.03237583488225937
1659029075656797200,9.006797119140625,0.0769689604640007,0.017944153398275375,-0.009162971749901772
1659029075666467000,9.016467041015625,0.02871064469218254,0.006948587018996477,-0.01435532234609127
1659029075676137000,9.026136962890625,0.024434590712189674,-0.0012980876490473747,0.007635809946805239
1659029075685806600,9.035806640625,-0.025350889191031456,-0.033979352563619614,-0.01588248461484909
1659029075695476500,9.0454765625,-0.05833758786320686,0.0035888305865228176,0.15760311484336853
1659029075705146400,9.055146484375,-0.04581485688686371,0.19387321174144745,0.03756818547844887
1659029075714816300,9.064816162109375,0.018631376326084137,-0.12927426397800446,0.010384701192378998
1659029075724486000,9.07448583984375,0.04459312930703163,0.10957387089729309,-0.11514800786972046
1659029075734155800,9.08415576171875,0.06017018109560013,-0.15462514758110046,-0.11117739230394363
1659029075743825700,9.09382568359375,0.04917461425065994,-0.04130972921848297,0.0027488914784044027
1659029075753495300,9.103495361328125,0.06597339361906052,0.1608865112066269,0.05742128938436508
1659029075763165200,9.113165283203125,0.02260199747979641,-0.07399099320173264,-0.05192350596189499
1659029075772835000,9.1228349609375,0.03329212963581085,-0.04436405375599861,0.003970621153712273
1659029075782505000,9.1325048828125,-0.003359756199643016,0.083306685090065,0.013439024798572063
1659029075792174600,9.142174560546875,-0.05711585655808449,-0.027259841561317444,-0.0015271619195118546
1659029075801844500,9.151844482421875,-0.05528326332569122,-0.011377356946468353,-0.000610864779446274
1659029075811514400,9.161514404296875,-0.08124501258134842,-0.016875140368938446,-0.0027488914784044027
1659029075821184000,9.17118408203125,-0.09529490768909454,0.013668099418282509,0.010384701192378998
1659029075830854000,9.18085400390625,-0.12583814561367035,-0.04802924394607544,-0.003359756199643016
1659029075840523800,9.190523681640625,-0.1383608728647232,0.018860450014472008,0.0009162971982732415
1659029075850193700,9.200193603515626,-0.1487455666065216,-0.036422811448574066,0.003970621153712273
1659029075859863300,9.20986328125,-0.15546508133411407,-0.020540328696370125,-0.010079269297420979
1659029075869533200,9.219533203125,-0.12125665694475174,-0.003741546766832471,0.0021380267571657896
1659029075879203000,9.229203125,-0.14294235408306122,0.014278964139521122,0.014966187067329884
1659029075888873000,9.238873046875,-0.14080433547496796,-0.028787001967430115,-0.014049889519810677
1659029075898542600,9.24854248046875,-0.13622283935546875,-0.00954476185142994,0.0015271619195118546
1659029075908212500,9.25821240234375,-0.17073670029640198,-0.004352411720901728,0.014660755172371864
1659029075917882000,9.267882080078126,-0.23915356397628784,-0.0012980876490473747,0.015577051788568497
1659029075927552300,9.27755224609375,-0.20708316564559937,-0.017486004158854485,0.021991131827235222
1659029075937222000,9.287221923828126,-0.23273947834968567,0.013057234697043896,-0.008246674202382565
1659029075946891800,9.296891845703126,-0.22937972843647003,-0.008628465235233307,0.025961752980947495
1659029075956561400,9.3065615234375,-0.18264856934547424,0.010613775812089443,0.021991131827235222
1659029075966231300,9.316231201171876,-0.12095122784376144,-0.030314164236187935,0.032681263983249664
1659029075975901200,9.325901123046876,-0.07544180005788803,0.006337722297757864,0.03237583488225937
1659029075985571000,9.335571044921876,-0.07757982611656189,-0.016875140368938446,0.0054977829568088055
1659029075995240700,9.34524072265625,-0.11423171311616898,-0.03520108386874199,-0.007635809946805239
1659029076004910600,9.35491064453125,-0.08888082206249237,0.04451677203178406,0.013744457624852657
1659029076014580500,9.36458056640625,-0.1334739476442337,-0.10819942504167557,-0.022296564653515816
1659029076024250400,9.37425048828125,-0.17134757339954376,-0.006490438245236874,0.05833758786320686
1659029076033920000,9.383919921875,-0.11942406743764877,0.15141810476779938,0.2205221801996231
1659029076043590000,9.39358984375,-0.2000582218170166,0.09033162891864777,-0.0054977829568088055
1659029076053259500,9.403259521484374,-0.11972949653863907,-0.2618319094181061,-0.20861032605171204
1659029076062929400,9.412929443359374,-0.12614357471466064,-0.14515674114227295,-0.01282816007733345
1659029076072599300,9.422599365234374,-0.1230892539024353,0.3236819803714752,0.15546508133411407
1659029076082269200,9.432269287109374,-0.1490510106086731,-0.19066616892814636,-0.0769689604640007
1659029076091938800,9.441938720703124,-0.11972949653863907,-0.1576794683933258,-0.15515965223312378
1659029076101608700,9.451608642578124,-0.1902843713760376,-0.013820815831422806,0.015271619893610477
1659029076111278600,9.461278564453124,-0.1951712965965271,0.1196531355381012,0.07360920310020447
1659029076120948500,9.470948486328124,-0.23518294095993042,-0.027259841561317444,-0.000305432389723137
1659029076130618000,9.4806181640625,-0.25473061203956604,-0.025732679292559624,-0.026878049597144127
1659029076140288000,9.4902880859375,-0.2370155304670334,-0.029397867619991302,0.005192350596189499
1659029076149958000,9.4999580078125,-0.21166464686393738,0.015195261687040329,0.02626718580722809
1659029076159627800,9.509627685546874,-0.1945604383945465,0.02283107116818428,0.026878049597144127
1659029076169297400,9.51929736328125,-0.19700388610363007,-0.029397867619991302,0.000305432389723137
1659029076178967300,9.52896728515625,-0.1744018942117691,-0.037033677101135254,-0.013133592903614044
1659029076188637200,9.53863720703125,-0.13103049993515015,-0.02756527252495289,0.018631376326084137
1659029076198306800,9.548306884765625,-0.12278381735086441,0.0475710928440094,0.1182023361325264
1659029076207976700,9.557976806640625,-0.09529490768909454,0.08575014024972916,0.07788526266813278
1659029076217646600,9.567646484375,-0.15057817101478577,-0.06879864633083344,-0.10384701192378998
1659029076227316500,9.57731640625,-0.13591741025447845,-0.23861905932426453,-0.1078176349401474
1659029076236986000,9.586986083984375,-0.1233946830034256,0.20364704728126526,0.11514800786972046
1659029076246656000,9.596656005859375,-0.0870482325553894,0.014889828860759735,-0.006414080038666725
1659029076256326000,9.606325927734375,-0.06841685622930527,-0.15095995366573334,-0.07299833744764328
1659029076265995500,9.61599560546875,-0.08338304609060287,0.05154171586036682,0.04764745384454727
1659029076275665400,9.62566552734375,-0.06566796451807022,0.04604393243789673,0.006108647678047419
1659029076285335300,9.635335205078125,-0.003359756199643016,-0.11583523452281952,-0.0668896958231926
1659029076295005000,9.6450048828125,0.015271619893610477,-0.004963276442140341,0.016187917441129684
1659029076304674800,9.6546748046875,0.014966187067329884,0.104076087474823,0.022296564653515816
1659029076314344700,9.6643447265625,0.09285144507884979,-0.09537126123905182,-0.032070402055978775
1659029076324014600,9.6740146484375,0.09621120244264603,0.012751801870763302,0.001221729558892548
1659029076333684200,9.683684326171875,0.053756099194288254,0.03138317912817001,0.025961752980947495
1659029076343354000,9.69335400390625,0.05406153202056885,-0.0022143847309052944,0.004276053514331579
1659029076353024000,9.70302392578125,0.09621120244264603,-0.015042545273900032,0.018631376326084137
1659029076362694000,9.71269384765625,0.08796452730894089,0.013057234697043896,0.026878049597144127
1659029076372363500,9.722363525390625,0.03756818547844887,0.000839939049910754,-0.04153880476951599
1659029076382033400,9.732033447265625,0.05833758786320686,-0.012904518283903599,0.008246674202382565
1659029076391703300,9.741703369140625,0.13958260416984558,-0.034895651042461395,-0.056199558079242706
1659029076401373200,9.751373291015625,0.2159406989812851,0.08116865903139114,0.0360410213470459
1659029076411042800,9.761042724609375,0.25320345163345337,-0.028176138177514076,-0.08338304609060287
1659029076420712700,9.770712646484375,0.2724456787109375,-0.15401428937911987,-0.015271619893610477
1659029076430382300,9.78038232421875,0.2370155304670334,0.18990258872509003,-0.001221729558892548
1659029076440052200,9.79005224609375,0.1847866028547287,-0.28290674090385437,-0.2510654330253601
1659029076449722000,9.79972216796875,0.11392628401517868,-0.6903535723686218,-0.41844236850738525
1659029076459392000,9.80939208984375,0.00946840364485979,-0.4035525321960449,-0.3585776388645172
1659029076469061600,9.8190615234375,-0.01649334840476513,0.1303432732820511,-0.09896009415388107
1659029076478731500,9.8287314453125,-0.007330377586185932,0.23602287471294403,0.0818558782339096
1659029076488401400,9.8384013671875,-0.003359756199643016,0.07719803601503372,0.15760311484336853
1659029076498071300,9.8480712890625,-0.005192350596189499,0.05001455545425415,0.20830489695072174
1659029076507741000,9.857740966796875,-0.008552107028663158,0.2381609082221985,0.2098320573568344
1659029076517410800,9.867410888671875,-0.005803215317428112,0.14133884012699127,0.06902772188186646
1659029076527080700,9.877080810546875,-0.0009162971982732415,-0.17753258347511292,-0.1649334877729416
1659029076536750600,9.88675048828125,0.0030543238390237093,-0.2541961073875427,-0.2263254076242447
1659029076546420200,9.896420166015625,0,-0.12927426397800446,-0.14782927930355072
1659029076556090000,9.906090087890625,-0.003359756199643016,0.030161447823047638,-0.015271619893610477
1659029076565760000,9.915760009765625,-0.0030543238390237093,0.09949459880590439,0.07757982611656189
1659029076575429600,9.9254296875,-0.003970621153712273,0.09277509152889252,0.11392628401517868
1659029076585099500,9.935099609375,-0.004276053514331579,0.07689260691404343,0.1130099818110466
1659029076594769400,9.944769287109375,-0.004581485874950886,0.07719803601503372,0.06719512492418289
1659029076604439300,9.954439208984375,-0.0027488914784044027,0.011224640533328056,-0.019242240116000175
1659029076614109000,9.96410888671875,-0.000305432389723137,-0.10453423857688904,-0.09346231073141098
1659029076623778800,9.97377880859375,0.0009162971982732415,-0.13324488699436188,-0.10629047453403473
1659029076633448700,9.98344873046875,-0.001221729558892548,-0.0449749194085598,-0.06444623321294785
1659029076643118600,9.99311865234375,-0.001832594396546483,0.035964664071798325,-0.0015271619195118546
1659029076652788200,10.002788330078126,-0.0027488914784044027,0.042684175074100494,0.04276053607463837
1659029076662458000,10.0124580078125,-0.002443459117785096,0.03871355578303337,0.0565049909055233
1659029076672127700,10.022127685546875,-0.0030543238390237093,0.04482220485806465,0.04459312930703163
1659029076681797600,10.031797607421876,-0.0027488914784044027,0.026801692321896553,0.016798781231045723
1659029076691467500,10.041467529296876,-0.001832594396546483,-0.02084576152265072,-0.023518294095993042
1659029076701137400,10.051137451171876,-0.0009162971982732415,-0.05810851231217384,-0.04825831577181816
1659029076710807000,10.06080712890625,-0.000305432389723137,-0.04558578506112099,-0.038789913058280945
1659029076720477000,10.070476806640626,-0.001221729558892548,0.002061668550595641,-0.010995565913617611
1659029076730146800,10.080146728515626,-0.02932151034474373,0.21616977453231812,0.38209593296051025
1659029076739816700,10.089816650390626,-0.07299833744764328,0.613231897354126,0.5229002237319946
1659029076749486300,10.099486328125,0.004886918235570192,-0.3372737169265747,-0.14782927930355072
1659029076759156200,10.10915625,0.001221729558892548,-0.29481860995292664,-0.1744018942117691
1659029076768826000,10.118826171875,-0.001832594396546483,0.15172353386878967,0.001832594396546483
1659029076778496000,10.12849609375,-0.001832594396546483,0.00603228947147727,-0.1487455666065216
1659029076788165600,10.13816552734375,0.0009162971982732415,-0.26794055104255676,-0.3454440236091614
1659029076797835500,10.14783544921875,0.003665188793092966,-0.3012326955795288,-0.28954991698265076
