time,seconds_elapsed,z,y,x
1659029066725890000,0.07589013671875,-58.14375305175781,-0.6375000476837158,-17.100000381469727
1659029066735890200,0.08589013671875,-58.06875228881836,-0.1875,-16.931251525878906
1659029066745890000,0.09589013671875,-58.031253814697266,0.30000001192092896,-16.61250114440918
1659029066755890200,0.10589013671875,-58.29375076293945,0,-16.78125
1659029066765890000,0.11589013671875,-58.14375305175781,0.11250000447034836,-16.631250381469727
1659029066775890200,0.12589013671875,-58.16250228881836,0.05625000223517418,-16.856250762939453
1659029066785890000,0.13589013671875,-58.06875228881836,0.07500000298023224,-16.89375114440918
1659029066795890200,0.14589013671875,-57.91875076293945,0.11250000447034836,-17.025001525878906
1659029066805890000,0.15589013671875,-58.10625076293945,0.03750000149011612,-16.950000762939453
1659029066815890200,0.16589013671875,-58.275001525878906,0,-17.118751525878906
1659029066825890000,0.17589013671875,-58.66875076293945,-0.581250011920929,-17.231250762939453
1659029066835890200,0.18589013671875,-58.29375076293945,-0.45000001788139343,-17.325000762939453
1659029066845890000,0.19589013671875,-58.70625305175781,-0.8437500596046448,-17.36250114440918
1659029066855890200,0.20589013671875,-58.81875228881836,-0.768750011920929,-17.475000381469727
1659029066865890000,0.21589013671875,-58.98750305175781,-0.8062500357627869,-17.681251525878906
1659029066875890200,0.22589013671875,-59.13750076293945,-1.162500023841858,-17.55000114440918
1659029066885890000,0.23589013671875,-58.781253814697266,-0.768750011920929,-17.71875
1659029066895890200,0.24589013671875,-58.89375305175781,-1.1437500715255737,-17.4375
1659029066905890000,0.25589013671875,-58.35000228881836,-0.75,-17.568750381469727
1659029066915890200,0.26589013671875,-58.72500228881836,-1.125,-17.006250381469727
1659029066925890000,0.27589013671875,-58.48125076293945,-0.862500011920929,-17.08125114440918
1659029066935890200,0.28589013671875,-58.781253814697266,-0.9937500357627869,-16.762500762939453
1659029066945890000,0.29589013671875,-58.44375228881836,-0.9937500357627869,-16.481250762939453
1659029066955890200,0.30589013671875,-58.44375228881836,-0.8250000476837158,-16.51875114440918
1659029066965890000,0.31589013671875,-58.368751525878906,-1.3312500715255737,-16.462501525878906
1659029066975890200,0.32589013671875,-58.14375305175781,-1.125,-16.350000381469727
1659029066985890000,0.33589013671875,-58.42500305175781,-1.1062500476837158,-16.162500381469727
1659029066995890200,0.34589013671875,-58.35000228881836,-0.8062500357627869,-16.443750381469727
1659029067005890000,0.35589013671875,-58.20000076293945,-0.6187500357627869,-16.387500762939453
1659029067015890200,0.36589013671875,-58.16250228881836,-0.8062500357627869,-16.068750381469727
1659029067025890000,0.37589013671875,-58.23750305175781,-0.768750011920929,-15.99375057220459
1659029067035890200,0.38589013671875,-58.10625076293945,-0.6187500357627869,-15.843750953674316
1659029067045890000,0.39589013671875,-58.51875305175781,-0.5062500238418579,-15.956250190734863
1659029067055890200,0.40589013671875,-58.593753814697266,-0.30000001192092896,-16.162500381469727
1659029067065890000,0.41589013671875,-58.53750228881836,-0.7312500476837158,-16.23750114440918
1659029067075890200,0.42589013671875,-58.53750228881836,-0.768750011920929,-16.42500114440918
1659029067085890000,0.43589013671875,-58.650001525878906,-1.2375000715255737,-16.631250381469727
1659029067095890200,0.44589013671875,-58.218753814697266,-0.956250011920929,-17.006250381469727
1659029067105890000,0.45589013671875,-58.57500076293945,-1.3125,-17.418750762939453
1659029067115890200,0.46589013671875,-58.687503814697266,-1.40625,-17.493751525878906
1659029067125890000,0.47589013671875,-58.38750076293945,-1.350000023841858,-17.418750762939453
1659029067135890200,0.48589013671875,-58.275001525878906,-1.21875,-17.4375
1659029067145890000,0.49589013671875,-58.218753814697266,-0.7125000357627869,-17.568750381469727
1659029067155890200,0.50589013671875,-57.937503814697266,-0.675000011920929,-17.45625114440918
1659029067165890000,0.51589013671875,-57.91875076293945,-0.30000001192092896,-17.287500381469727
1659029067175890200,0.52589013671875,-57.993751525878906,-0.4125000238418579,-17.287500381469727
1659029067185890000,0.53589013671875,-57.67500305175781,-0.15000000596046448,-16.931251525878906
1659029067195890200,0.54589013671875,-57.76875305175781,0.05625000223517418,-16.931251525878906
1659029067205890000,0.55589013671875,-57.63750076293945,0.26250001788139343,-16.80000114440918
1659029067215890200,0.56589013671875,-57.562503814697266,0.09375,-16.743751525878906
1659029067225890000,0.57589013671875,-57.50625228881836,0.3187500238418579,-16.5
1659029067235890200,0.58589013671875,-58.05000305175781,-0.16875000298023224,-16.5
1659029067245890000,0.59589013671875,-58.087501525878906,-0.26250001788139343,-16.481250762939453
1659029067255890200,0.60589013671875,-58.275001525878906,-0.6375000476837158,-16.51875114440918
1659029067265890000,0.61589013671875,-58.48125076293945,-0.581250011920929,-16.668750762939453
1659029067275890200,0.62589013671875,-58.57500076293945,-0.8812500238418579,-16.5
1659029067285890000,0.63589013671875,-58.63125228881836,-0.9187500476837158,-16.462501525878906
1659029067295890200,0.64589013671875,-58.76250076293945,-0.8062500357627869,-16.61250114440918
1659029067305890000,0.65589013671875,-58.80000305175781,-1.2000000476837158,-16.6875
1659029067315890200,0.66589013671875,-58.25625228881836,-0.6375000476837158,-16.59375
1659029067325890000,0.67589013671875,-57.91875076293945,-0.6000000238418579,-16.5
1659029067335890200,0.68589013671875,-57.54375076293945,0,-16.51875114440918
1659029067345890000,0.69589013671875,-57.243751525878906,-0.05625000223517418,-16.556251525878906
1659029067355890200,0.70589013671875,-56.92500305175781,0.24375000596046448,-16.78125
1659029067365890000,0.71589013671875,-56.98125076293945,0.09375,-16.98750114440918
1659029067375890200,0.72589013671875,-57.01875305175781,-0.03750000149011612,-17.006250381469727
1659029067385890000,0.73589013671875,-57.01875305175781,-0.07500000298023224,-16.96875
1659029067395890200,0.74589013671875,-57.39375305175781,-0.13125000894069672,-17.193750381469727
1659029067405890000,0.75589013671875,-57.937503814697266,-0.4312500059604645,-16.98750114440918
1659029067415890200,0.76589013671875,-58.06875228881836,-0.4687500298023224,-17.006250381469727
1659029067425890000,0.77589013671875,-58.48125076293945,-0.7875000238418579,-16.856250762939453
1659029067435890200,0.78589013671875,-58.556251525878906,-0.9000000357627869,-16.856250762939453
1659029067445890000,0.79589013671875,-59.17500305175781,-1.3312500715255737,-16.70625114440918
1659029067455890200,0.80589013671875,-59.025001525878906,-1.2375000715255737,-16.70625114440918
1659029067465890000,0.81589013671875,-59.13750076293945,-1.2375000715255737,-16.80000114440918
1659029067475890200,0.82589013671875,-58.98750305175781,-1.1437500715255737,-16.631250381469727
1659029067485890000,0.83589013671875,-58.70625305175781,-1.1437500715255737,-17.100000381469727
1659029067495890200,0.84589013671875,-58.743751525878906,-1.1437500715255737,-17.043750762939453
1659029067505890000,0.85589013671875,-58.38750076293945,-0.8062500357627869,-17.193750381469727
1659029067515890200,0.86589013671875,-58.368751525878906,-0.7125000357627869,-17.15625
1659029067525890000,0.87589013671875,-57.91875076293945,-0.3187500238418579,-17.118751525878906
1659029067535890200,0.88589013671875,-57.95625305175781,-0.13125000894069672,-16.837501525878906
1659029067545890000,0.89589013671875,-57.88125228881836,0.01875000074505806,-16.743751525878906
1659029067555890200,0.90589013671875,-57.900001525878906,0.11250000447034836,-16.5
1659029067565890000,0.91589013671875,-57.656253814697266,0.6375000476837158,-16.368751525878906
1659029067575890200,0.92589013671875,-57.26250076293945,0.39375001192092896,-16.21875
1659029067585890000,0.93589013671875,-57.20625305175781,0.581250011920929,-16.03125
1659029067595890200,0.94589013671875,-57.22500228881836,0.5062500238418579,-15.937500953674316
1659029067605890000,0.95589013671875,-57.20625305175781,0.7125000357627869,-15.656250953674316
1659029067615890200,0.96589013671875,-56.962501525878906,0.6000000238418579,-15.637500762939453
1659029067625890000,0.97589013671875,-56.47500228881836,0.8437500596046448,-15.71250057220459
1659029067635890200,0.98589013671875,-56.51250076293945,0.7312500476837158,-16.012500762939453
1659029067645890000,0.99589013671875,-56.73750305175781,0.6937500238418579,-15.750000953674316
1659029067655890200,1.00589013671875,-57.30000305175781,0.5250000357627869,-15.71250057220459
1659029067665890000,1.01589013671875,-57.431251525878906,0.4687500298023224,-15.61875057220459
1659029067675890200,1.02589013671875,-57.618751525878906,-0.01875000074505806,-15.506250381469727
1659029067685890000,1.03589013671875,-57.468753814697266,-0.05625000223517418,-15.581250190734863
1659029067695890200,1.04589013671875,-57.712501525878906,-0.5062500238418579,-15.693750381469727
1659029067705890000,1.05589013671875,-58.181251525878906,-0.75,-15.300000190734863
1659029067715890200,1.06589013671875,-58.25625228881836,-0.7875000238418579,-14.86875057220459
1659029067725890000,1.07589013671875,-58.275001525878906,-0.8062500357627869,-14.906250953674316
1659029067735888400,1.085888427734375,-58.05000305175781,-0.35625001788139343,-14.737500190734863
1659029067745888500,1.095888427734375,-57.900001525878906,-0.20625001192092896,-14.718750953674316
1659029067755888400,1.105888427734375,-57.69375228881836,0.26250001788139343,-14.831250190734863
1659029067765888500,1.115888427734375,-57.843753814697266,0.3187500238418579,-14.96250057220459
1659029067775888400,1.125888427734375,-57.95625305175781,0.7875000238418579,-14.906250953674316
1659029067785888500,1.135888427734375,-57.937503814697266,0.8437500596046448,-14.925000190734863
1659029067795888400,1.145888427734375,-57.78750228881836,0.9000000357627869,-15.24375057220459
1659029067805888500,1.155888427734375,-57.806251525878906,1.068750023841858,-15.093750953674316
1659029067815888400,1.165888427734375,-57.82500076293945,1.0500000715255737,-15.187500953674316
1659029067825888500,1.175888427734375,-57.993751525878906,0.9937500357627869,-14.943750381469727
1659029067835888400,1.185888427734375,-57.97500228881836,1.0875000953674316,-14.718750953674316
1659029067845888500,1.195888427734375,-57.86250305175781,1.125,-14.156250953674316
1659029067855888400,1.205888427734375,-57.73125076293945,1.162500023841858,-13.762500762939453
1659029067865888500,1.215888427734375,-57.63750076293945,1.2000000476837158,-13.575000762939453
1659029067875888400,1.225888427734375,-57.54375076293945,1.2750000953674316,-13.256250381469727
1659029067885888500,1.235888427734375,-57.48750305175781,1.125,-13.012500762939453
1659029067895888400,1.245888427734375,-57.50625228881836,1.125,-12.825000762939453
1659029067905888500,1.255888427734375,-57.35625076293945,1.0500000715255737,-12.543750762939453
1659029067915888400,1.265888427734375,-57.35625076293945,1.0125000476837158,-12.281250953674316
1659029067925888500,1.275888427734375,-57.30000305175781,1.0125000476837158,-12.187500953674316
1659029067935888400,1.285888427734375,-57.11250305175781,0.8812500238418579,-12.093750953674316
1659029067945888500,1.295888427734375,-57.056251525878906,0.7875000238418579,-12.187500953674316
1659029067955888400,1.305888427734375,-57.13125228881836,0.7312500476837158,-11.86875057220459
1659029067965888500,1.315888427734375,-57.093753814697266,0.7125000357627869,-11.700000762939453
1659029067975888400,1.325888427734375,-57.11250305175781,0.4312500059604645,-11.40000057220459
1659029067985888500,1.335888427734375,-57.187503814697266,0.22500000894069672,-11.475000381469727
1659029067995888400,1.345888427734375,-57.03750228881836,0.30000001192092896,-11.325000762939453
1659029068005888500,1.355888427734375,-56.962501525878906,0.01875000074505806,-11.550000190734863
1659029068015888400,1.365888427734375,-56.98125076293945,0.03750000149011612,-11.381250381469727
1659029068025888500,1.375888427734375,-57.243751525878906,0.15000000596046448,-11.081250190734863
1659029068035888400,1.385888427734375,-57.150001525878906,0.26250001788139343,-11.02500057220459
1659029068045888500,1.395888427734375,-57.22500228881836,0.26250001788139343,-11.043750762939453
1659029068055888400,1.405888427734375,-57.187503814697266,0.6375000476837158,-11.0625
1659029068065888500,1.415888427734375,-57.243751525878906,0.9000000357627869,-10.950000762939453
1659029068075888400,1.425888427734375,-57.58125305175781,0.862500011920929,-11.100000381469727
1659029068085888500,1.435888427734375,-57.69375228881836,0.8812500238418579,-10.856250762939453
1659029068095888400,1.445888427734375,-57.88125228881836,0.6937500238418579,-10.893750190734863
1659029068105888500,1.455888427734375,-57.76875305175781,0.6937500238418579,-10.856250762939453
1659029068115888400,1.465888427734375,-57.82500076293945,0.5062500238418579,-10.78125
1659029068125888500,1.475888427734375,-57.750003814697266,0.48750001192092896,-10.6875
1659029068135888400,1.485888427734375,-57.50625228881836,0.3187500238418579,-10.481250762939453
1659029068145888500,1.495888427734375,-57.48750305175781,-0.01875000074505806,-10.425000190734863
1659029068155888400,1.505888427734375,-57.431251525878906,-0.24375000596046448,-10.331250190734863
1659029068165888500,1.515888427734375,-57.58125305175781,-0.16875000298023224,-10.27500057220459
1659029068175888400,1.525888427734375,-57.60000228881836,-0.09375,-10.331250190734863
1659029068185888500,1.535888427734375,-57.750003814697266,-0.20625001192092896,-10.162500381469727
1659029068195888400,1.545888427734375,-57.73125076293945,-0.35625001788139343,-10.200000762939453
1659029068205888500,1.555888427734375,-57.806251525878906,-0.581250011920929,-10.256250381469727
1659029068215888400,1.565888427734375,-58.14375305175781,-0.581250011920929,-10.3125
1659029068225888500,1.575888427734375,-58.125003814697266,-0.5062500238418579,-10.36875057220459
1659029068235888400,1.585888427734375,-57.97500228881836,-0.581250011920929,-10.08750057220459
1659029068245888500,1.595888427734375,-57.656253814697266,-0.6000000238418579,-9.881250381469727
1659029068255888400,1.605888427734375,-57.45000076293945,-0.7312500476837158,-9.731250762939453
1659029068265888500,1.615888427734375,-57.150001525878906,-0.8437500596046448,-9.52500057220459
1659029068275888400,1.625888427734375,-57.056251525878906,-0.8812500238418579,-9.24375057220459
1659029068285888500,1.635888427734375,-56.906253814697266,-0.9750000238418579,-9.018750190734863
1659029068295888400,1.645888427734375,-56.79375076293945,-1.3125,-8.887500762939453
1659029068305888500,1.655888427734375,-56.812503814697266,-1.5750000476837158,-8.568750381469727
1659029068315888400,1.665888427734375,-56.775001525878906,-1.725000023841858,-8.512500762939453
1659029068325888500,1.675888427734375,-57.000003814697266,-2.0812501907348633,-8.40000057220459
1659029068335888400,1.685888427734375,-57.07500076293945,-2.3062500953674316,-8.287500381469727
1659029068345888500,1.695888427734375,-57.03750228881836,-2.4562501907348633,-8.231250762939453
1659029068355888400,1.705888427734375,-57.243751525878906,-2.6625001430511475,-8.25
1659029068365888500,1.715888427734375,-57.281253814697266,-2.7750000953674316,-8.231250762939453
1659029068375888400,1.725888427734375,-57.13125228881836,-2.7750000953674316,-8.231250762939453
1659029068385888500,1.735888427734375,-57.01875305175781,-2.8500001430511475,-8.287500381469727
1659029068395888400,1.745888427734375,-56.962501525878906,-3.0375001430511475,-8.15625
1659029068405888500,1.755888427734375,-56.92500305175781,-3.2250001430511475,-8.21250057220459
1659029068415888400,1.765888427734375,-56.92500305175781,-3.356250047683716,-8.175000190734863
1659029068425888500,1.775888427734375,-57.056251525878906,-3.6750001907348633,-8.268750190734863
1659029068435888400,1.785888427734375,-56.85000228881836,-3.5062501430511475,-8.30625057220459
1659029068445888500,1.795888427734375,-56.775001525878906,-3.8062500953674316,-8.193750381469727
1659029068455888400,1.805888427734375,-56.437503814697266,-4.03125,-8.0625
1659029068465888500,1.815888427734375,-56.493751525878906,-4.21875,-8.268750190734863
1659029068475888400,1.825888427734375,-56.47500228881836,-4.293750286102295,-8.53125
1659029068485888500,1.835888427734375,-56.36250305175781,-4.368750095367432,-8.643750190734863
1659029068495888400,1.845888427734375,-56.025001525878906,-4.350000381469727,-8.625
1659029068505888500,1.855888427734375,-55.968753814697266,-4.387500286102295,-8.625
1659029068515888400,1.865888427734375,-55.91250228881836,-4.893750190734863,-8.8125
1659029068525888500,1.875888427734375,-55.81875228881836,-4.96875,-8.96250057220459
1659029068535888400,1.885888427734375,-56.118751525878906,-4.931250095367432,-9.375
1659029068545888500,1.895888427734375,-56.00625228881836,-4.950000286102295,-9.262500762939453
1659029068555888400,1.905888427734375,-55.95000076293945,-4.837500095367432,-9.262500762939453
1659029068565888500,1.915888427734375,-55.743751525878906,-4.725000381469727,-9.318750381469727
1659029068575888400,1.925888427734375,-55.968753814697266,-4.762500286102295,-9.5625
1659029068585888500,1.935888427734375,-55.931251525878906,-4.556250095367432,-9.90000057220459
1659029068595888400,1.945888427734375,-55.95000076293945,-4.5,-9.881250381469727
1659029068605888500,1.955888427734375,-55.931251525878906,-4.518750190734863,-10.293750762939453
1659029068615888400,1.965888427734375,-55.91250228881836,-4.650000095367432,-10.068750381469727
1659029068625888500,1.975888427734375,-55.81875228881836,-4.537500381469727,-10.27500057220459
1659029068635888400,1.985888427734375,-55.593753814697266,-4.725000381469727,-10.293750762939453
1659029068645888500,1.995888427734375,-55.72500228881836,-4.78125,-10.425000190734863
1659029068655888400,2.005888427734375,-55.687503814697266,-4.856250286102295,-10.59375
1659029068665888500,2.015888427734375,-55.593753814697266,-5.15625,-10.55625057220459
1659029068675888400,2.025888427734375,-55.500003814697266,-5.118750095367432,-10.818750381469727
1659029068685888500,2.035888427734375,-55.593753814697266,-5.025000095367432,-10.74375057220459
1659029068695888400,2.045888427734375,-55.312503814697266,-4.837500095367432,-10.93125057220459
1659029068705888500,2.055888427734375,-55.368751525878906,-4.818750381469727,-10.818750381469727
1659029068715888400,2.065888427734375,-55.462501525878906,-4.668750286102295,-10.725000381469727
1659029068725888500,2.075888427734375,-55.406253814697266,-4.650000095367432,-10.93125057220459
1659029068735888400,2.085888427734375,-55.125003814697266,-4.5,-10.800000190734863
1659029068745888500,2.095888427734375,-55.01250076293945,-4.368750095367432,-10.893750190734863
1659029068755888400,2.105888427734375,-54.78750228881836,-4.21875,-10.912500381469727
1659029068765888500,2.115888427734375,-54.58125305175781,-4.181250095367432,-10.83750057220459
1659029068775888400,2.125888427734375,-54.468753814697266,-4.106250286102295,-10.725000381469727
1659029068785888500,2.135888427734375,-54.07500076293945,-4.050000190734863,-10.912500381469727
1659029068795888400,2.145888427734375,-54.150001525878906,-3.9562501907348633,-11.193750381469727
1659029068805888500,2.155888427734375,-54.000003814697266,-3.9937500953674316,-11.02500057220459
1659029068815888400,2.165888427734375,-54.150001525878906,-3.8625001907348633,-11.231250762939453
1659029068825888500,2.175888427734375,-54.000003814697266,-3.731250047683716,-11.4375
1659029068835888400,2.185888427734375,-54.337501525878906,-3.750000238418579,-11.325000762939453
1659029068845888500,2.195888427734375,-54.26250076293945,-3.5062501430511475,-11.175000190734863
1659029068855888400,2.205888427734375,-54.45000076293945,-3.4875001907348633,-11.325000762939453
1659029068865888500,2.215888427734375,-54.562503814697266,-3.5062501430511475,-11.175000190734863
1659029068875888400,2.225888427734375,-54.35625076293945,-3.3937501907348633,-11.02500057220459
1659029068885888500,2.235888427734375,-54.243751525878906,-3.168750047683716,-11.006250381469727
1659029068895888400,2.245888427734375,-54.16875076293945,-3.3375000953674316,-10.893750190734863
1659029068905888500,2.255888427734375,-54.20625305175781,-3.3937501907348633,-10.443750381469727
1659029068915888400,2.265888427734375,-54.000003814697266,-3.2250001430511475,-10.481250762939453
1659029068925888500,2.275888427734375,-54.03750228881836,-3.093750238418579,-10.6875
1659029068935888400,2.285888427734375,-53.94375228881836,-3,-10.74375057220459
1659029068945888500,2.295888427734375,-54.11250305175781,-2.981250047683716,-10.78125
1659029068955888400,2.305888427734375,-54.13125228881836,-2.9625000953674316,-10.875
1659029068965888500,2.315888427734375,-54.093753814697266,-2.9437501430511475,-10.856250762939453
1659029068975888400,2.325888427734375,-54.13125228881836,-2.8500001430511475,-10.537500381469727
1659029068985888500,2.335888427734375,-54.150001525878906,-2.5500001907348633,-10.83750057220459
1659029068995888400,2.345888427734375,-53.88750076293945,-2.512500047683716,-10.631250381469727
1659029069005888500,2.355888427734375,-53.868751525878906,-2.6625001430511475,-10.387500762939453
1659029069015888400,2.365888427734375,-53.868751525878906,-2.7375001907348633,-10.08750057220459
1659029069025888500,2.375888427734375,-53.868751525878906,-2.6812500953674316,-10.03125
1659029069035888400,2.385888427734375,-53.73750305175781,-2.7750000953674316,-10.143750190734863
1659029069045888500,2.395888427734375,-53.962501525878906,-2.6812500953674316,-10.331250190734863
1659029069055888400,2.405888427734375,-53.75625228881836,-2.8125,-10.387500762939453
1659029069065888500,2.415888427734375,-53.718753814697266,-2.9625000953674316,-9.956250190734863
1659029069075888400,2.425888427734375,-53.868751525878906,-3.0562500953674316,-9.80625057220459
1659029069085888500,2.435888427734375,-53.88750076293945,-3.2062501907348633,-9.768750190734863
1659029069095888400,2.445888427734375,-53.868751525878906,-3.262500047683716,-9.65625
1659029069105888500,2.455888427734375,-53.775001525878906,-3.356250047683716,-9.581250190734863
1659029069115888400,2.465888427734375,-53.94375228881836,-3.281250238418579,-9.393750190734863
1659029069125888500,2.475888427734375,-54.000003814697266,-3.2062501907348633,-9.168750762939453
1659029069135888400,2.485888427734375,-54.093753814697266,-3.168750047683716,-9.262500762939453
1659029069145888500,2.495888427734375,-54.22500228881836,-3.168750047683716,-9.487500190734863
1659029069155888400,2.505888427734375,-54.26250076293945,-3,-9.693750381469727
1659029069165888500,2.515888427734375,-54.243751525878906,-3.0187501907348633,-9.75
1659029069175888400,2.525888427734375,-54.22500228881836,-3,-9.768750190734863
1659029069185888500,2.535888427734375,-54.41250228881836,-2.6437501907348633,-9.65625
1659029069195888400,2.545888427734375,-54.375003814697266,-2.4937500953674316,-9.450000762939453
1659029069205888500,2.555888427734375,-54.07500076293945,-2.5687501430511475,-9.46875
1659029069215888400,2.565888427734375,-54.03750228881836,-2.3812501430511475,-9.24375057220459
1659029069225888500,2.575888427734375,-53.868751525878906,-2.4000000953674316,-9.168750762939453
1659029069235888400,2.585888427734375,-53.85000228881836,-2.5687501430511475,-8.943750381469727
1659029069245888500,2.595888427734375,-53.70000076293945,-2.4000000953674316,-8.850000381469727
1659029069255888400,2.605888427734375,-53.75625228881836,-2.3812501430511475,-8.925000190734863
1659029069265888500,2.615888427734375,-53.47500228881836,-2.606250047683716,-8.96250057220459
1659029069275888400,2.625888427734375,-53.28750228881836,-2.700000047683716,-8.96250057220459
1659029069285888500,2.635888427734375,-53.55000305175781,-2.606250047683716,-8.756250381469727
1659029069295888400,2.645888427734375,-53.70000076293945,-2.8312501907348633,-8.68125057220459
1659029069305888500,2.655888427734375,-53.79375076293945,-2.8125,-8.512500762939453
1659029069315888400,2.665888427734375,-53.83125305175781,-2.71875,-8.49375057220459
1659029069325888500,2.675888427734375,-53.906253814697266,-2.8125,-8.4375
1659029069335888400,2.685888427734375,-53.75625228881836,-2.700000047683716,-8.381250381469727
1659029069345888500,2.695888427734375,-53.79375076293945,-2.6812500953674316,-8.325000762939453
1659029069355888400,2.705888427734375,-53.75625228881836,-2.700000047683716,-8.30625057220459
1659029069365888500,2.715888427734375,-53.400001525878906,-2.8125,-8.30625057220459
1659029069375888400,2.725888427734375,-53.26875305175781,-2.606250047683716,-8.34375
1659029069385888500,2.735888427734375,-53.13750076293945,-2.6812500953674316,-8.418750762939453
1659029069395888400,2.745888427734375,-52.95000076293945,-2.6812500953674316,-8.4375
1659029069405888500,2.755888427734375,-52.931251525878906,-2.606250047683716,-8.268750190734863
1659029069415888400,2.765888427734375,-52.91250228881836,-2.625,-8.25
1659029069425888500,2.775888427734375,-52.837501525878906,-2.7375001907348633,-8.231250762939453
1659029069435888400,2.785888427734375,-52.91250228881836,-2.7750000953674316,-8.30625057220459
1659029069445888500,2.795888427734375,-53.343753814697266,-2.8312501907348633,-8.325000762939453
1659029069455888400,2.805888427734375,-53.38125228881836,-2.7750000953674316,-8.325000762939453
1659029069465888500,2.815888427734375,-53.437503814697266,-2.606250047683716,-8.25
1659029069475888400,2.825888427734375,-53.681251525878906,-2.4375,-8.02500057220459
1659029069485888500,2.835888427734375,-53.625003814697266,-2.4375,-8.02500057220459
1659029069495888400,2.845888427734375,-53.75625228881836,-2.3625001907348633,-8.006250381469727
1659029069505888500,2.855888427734375,-53.775001525878906,-2.25,-7.987500190734863
1659029069515888400,2.865888427734375,-53.73750305175781,-2.137500047683716,-8.006250381469727
1659029069525888500,2.875888427734375,-53.625003814697266,-2.0250000953674316,-7.818750381469727
1659029069535888400,2.885888427734375,-53.60625076293945,-1.912500023841858,-7.781250476837158
1659029069545888500,2.895888427734375,-53.41875076293945,-1.6875001192092896,-7.556250095367432
1659029069555888400,2.905888427734375,-53.13750076293945,-2.0812501907348633,-7.725000381469727
1659029069565888500,2.915888427734375,-53.04375076293945,-2.0062501430511475,-7.706250190734863
1659029069575888400,2.925888427734375,-53.156253814697266,-1.8937500715255737,-7.518750190734863
1659029069585888500,2.935888427734375,-53.250003814697266,-1.818750023841858,-7.425000190734863
1659029069595888400,2.945888427734375,-53.23125076293945,-1.7062500715255737,-7.031250476837158
1659029069605888500,2.955888427734375,-52.837501525878906,-1.6125000715255737,-6.975000381469727
1659029069615888400,2.965888427734375,-52.837501525878906,-1.7062500715255737,-6.675000190734863
1659029069625888500,2.975888427734375,-52.80000305175781,-1.818750023841858,-6.975000381469727
1659029069635888400,2.985888427734375,-52.89375305175781,-1.5937501192092896,-6.937500476837158
1659029069645888500,2.995888427734375,-52.781253814697266,-1.6687500476837158,-7.031250476837158
1659029069655888400,3.005888427734375,-52.781253814697266,-1.631250023841858,-7.125000476837158
1659029069665888500,3.015888427734375,-52.875003814697266,-1.7062500715255737,-7.106250286102295
1659029069675888400,3.025888427734375,-53.00625228881836,-2.0062501430511475,-7.218750476837158
1659029069685888500,3.035888427734375,-53.156253814697266,-1.9875000715255737,-7.143750190734863
1659029069695888400,3.045888427734375,-53.156253814697266,-2.0062501430511475,-7.443750381469727
1659029069705888500,3.055888427734375,-53.437503814697266,-1.912500023841858,-7.218750476837158
1659029069715888400,3.065888427734375,-53.45625305175781,-1.9312500953674316,-7.237500190734863
1659029069725888500,3.075888427734375,-53.79375076293945,-1.912500023841858,-7.031250476837158
1659029069735888400,3.085888427734375,-53.625003814697266,-2.0062501430511475,-7.031250476837158
1659029069745888500,3.095888427734375,-53.56875228881836,-1.8000000715255737,-7.012500286102295
1659029069755888400,3.105888427734375,-53.775001525878906,-1.6687500476837158,-6.993750095367432
1659029069765888500,3.115888427734375,-53.94375228881836,-1.6875001192092896,-6.956250190734863
1659029069775888400,3.125888427734375,-53.962501525878906,-1.8750001192092896,-6.937500476837158
1659029069785888500,3.135888427734375,-53.85000228881836,-2.043750047683716,-6.881250381469727
1659029069795888400,3.145888427734375,-53.906253814697266,-2.043750047683716,-6.656250476837158
1659029069805888500,3.155888427734375,-53.906253814697266,-2.043750047683716,-6.787500381469727
1659029069815888400,3.165888427734375,-54.000003814697266,-2.0812501907348633,-6.543750286102295
1659029069825888500,3.175888427734375,-53.98125076293945,-2.1000001430511475,-6.356250286102295
1659029069835888400,3.185888427734375,-53.775001525878906,-2.0625,-6.300000190734863
1659029069845888500,3.195888427734375,-53.70000076293945,-2.1750001907348633,-6.450000286102295
1659029069855888400,3.205888427734375,-53.775001525878906,-1.8750001192092896,-6.243750095367432
1659029069865888500,3.215888427734375,-53.83125305175781,-1.8562500476837158,-6.356250286102295
1659029069875888400,3.225888427734375,-54.000003814697266,-1.7625000476837158,-6.450000286102295
1659029069885888500,3.235888427734375,-53.94375228881836,-1.818750023841858,-6.318750381469727
1659029069895888400,3.245888427734375,-54.056251525878906,-1.818750023841858,-6.487500190734863
1659029069905888500,3.255888427734375,-53.94375228881836,-1.9875000715255737,-6.618750095367432
1659029069915888400,3.265888427734375,-54.056251525878906,-1.9687501192092896,-6.656250476837158
1659029069925888500,3.275888427734375,-54.35625076293945,-2.137500047683716,-6.543750286102295
1659029069935888400,3.285888427734375,-54.11250305175781,-2.325000047683716,-6.543750286102295
1659029069945888500,3.295888427734375,-54.187503814697266,-2.325000047683716,-6.468750476837158
1659029069955888400,3.305888427734375,-54.11250305175781,-2.4000000953674316,-6.525000095367432
1659029069965888500,3.315888427734375,-53.962501525878906,-2.3062500953674316,-6.581250190734863
1659029069975888400,3.325888427734375,-53.868751525878906,-2.4562501907348633,-6.487500190734863
1659029069985888500,3.335888427734375,-53.868751525878906,-2.53125,-6.581250190734863
1659029069995888400,3.345888427734375,-53.83125305175781,-2.6812500953674316,-6.787500381469727
1659029070005888500,3.355888427734375,-53.70000076293945,-2.5875000953674316,-6.731250286102295
1659029070015888400,3.365888427734375,-53.812503814697266,-2.5875000953674316,-6.900000095367432
1659029070025888500,3.375888427734375,-53.83125305175781,-2.8687500953674316,-7.200000286102295
1659029070035888400,3.385888427734375,-53.868751525878906,-3.1125001907348633,-7.087500095367432
1659029070045888500,3.395888427734375,-54.03750228881836,-3.375000238418579,-7.068750381469727
1659029070055888400,3.405888427734375,-54.056251525878906,-3.187500238418579,-7.125000476837158
1659029070065888500,3.415888427734375,-54.150001525878906,-3,-7.031250476837158
1659029070075888400,3.425888427734375,-54.22500228881836,-3.075000047683716,-6.881250381469727
1659029070085888500,3.435888427734375,-54.337501525878906,-3.2062501907348633,-6.975000381469727
1659029070095888400,3.445888427734375,-54.41250228881836,-3.3375000953674316,-7.068750381469727
1659029070105888500,3.455888427734375,-54.48750305175781,-3.3000001907348633,-7.012500286102295
1659029070115888400,3.465888427734375,-54.562503814697266,-3.3187501430511475,-7.125000476837158
1659029070125888500,3.475888427734375,-54.900001525878906,-3.3187501430511475,-7.312500476837158
1659029070135888400,3.485888427734375,-55.10625076293945,-3.6187500953674316,-7.293750286102295
1659029070145888500,3.495888427734375,-55.05000305175781,-3.825000047683716,-7.200000286102295
1659029070155888400,3.505888427734375,-55.05000305175781,-3.918750047683716,-7.350000381469727
1659029070165888500,3.515888427734375,-54.843753814697266,-3.7125000953674316,-7.687500476837158
1659029070175888400,3.525888427734375,-54.82500076293945,-3.7875001430511475,-7.500000476837158
1659029070185888500,3.535888427734375,-54.67500305175781,-3.8625001907348633,-7.725000381469727
1659029070195888400,3.545888427734375,-54.525001525878906,-3.9562501907348633,-7.950000286102295
1659029070205888500,3.555888427734375,-54.35625076293945,-4.200000286102295,-8.0625
1659029070215888400,3.565888427734375,-54.26250076293945,-4.143750190734863,-8.268750190734863
1659029070225888500,3.575888427734375,-54.39375305175781,-4.162500381469727,-8.77500057220459
1659029070235888400,3.585888427734375,-54.375003814697266,-4.143750190734863,-8.86875057220459
1659029070245888500,3.595888427734375,-54.50625228881836,-4.331250190734863,-8.8125
1659029070255888400,3.605888427734375,-54.562503814697266,-4.237500190734863,-9.131250381469727
1659029070265888500,3.615888427734375,-54.656253814697266,-4.106250286102295,-8.981250762939453
1659029070275888400,3.625888427734375,-54.86250305175781,-4.181250095367432,-9.112500190734863
1659029070285888500,3.635888427734375,-54.82500076293945,-3.918750047683716,-9.15000057220459
1659029070295888400,3.645888427734375,-54.95625305175781,-4.050000190734863,-9.24375057220459
1659029070305888500,3.655888427734375,-54.937503814697266,-4.200000286102295,-9.1875
1659029070315888400,3.665888427734375,-54.937503814697266,-4.125,-9.28125
1659029070325888500,3.675888427734375,-55.031253814697266,-4.087500095367432,-9.318750381469727
1659029070335888400,3.685888427734375,-55.01250076293945,-3.9750001430511475,-9.28125
1659029070345888500,3.695888427734375,-55.218753814697266,-3.8062500953674316,-9.206250190734863
1659029070355888400,3.705888427734375,-55.312503814697266,-3.6187500953674316,-9.112500190734863
1659029070365888500,3.715888427734375,-55.125003814697266,-3.543750047683716,-9.15000057220459
1659029070375888400,3.725888427734375,-55.087501525878906,-3.4312500953674316,-9.33750057220459
1659029070385888500,3.735888427734375,-55.275001525878906,-3.3375000953674316,-9.33750057220459
1659029070395888400,3.745888427734375,-55.462501525878906,-3.187500238418579,-9.1875
1659029070405888500,3.755888427734375,-55.35000228881836,-2.9437501430511475,-9.318750381469727
1659029070415888400,3.765888427734375,-55.406253814697266,-3.1125001907348633,-9.46875
1659029070425888500,3.775888427734375,-55.33125305175781,-3.1312501430511475,-9.693750381469727
1659029070435888400,3.785888427734375,-55.20000076293945,-2.887500047683716,-9.675000190734863
1659029070445888500,3.795888427734375,-55.38750076293945,-2.6437501907348633,-9.450000762939453
1659029070455888400,3.805888427734375,-55.368751525878906,-2.4750001430511475,-9.24375057220459
1659029070465888500,3.815888427734375,-55.275001525878906,-2.3625001907348633,-9.375
1659029070475888400,3.825888427734375,-55.23750305175781,-2.5500001907348633,-9.46875
1659029070485888500,3.835888427734375,-55.125003814697266,-2.6437501907348633,-9.5625
1659029070495888400,3.845888427734375,-55.087501525878906,-2.325000047683716,-9.412500381469727
1659029070505888500,3.855888427734375,-55.181251525878906,-2.3625001907348633,-9.487500190734863
1659029070515888400,3.865888427734375,-54.97500228881836,-2.4750001430511475,-9.450000762939453
1659029070525888500,3.875888427734375,-54.82500076293945,-2.71875,-9.581250190734863
1659029070535888400,3.885888427734375,-54.843753814697266,-2.6437501907348633,-9.731250762939453
1659029070545888500,3.895888427734375,-54.750003814697266,-2.625,-9.61875057220459
1659029070555888400,3.905888427734375,-54.76875305175781,-2.4562501907348633,-9.675000190734863
1659029070565888500,3.915888427734375,-54.900001525878906,-2.4750001430511475,-9.487500190734863
1659029070575888400,3.925888427734375,-54.843753814697266,-2.6437501907348633,-9.43125057220459
1659029070585888500,3.935888427734375,-54.69375228881836,-2.8125,-9.300000190734863
1659029070595888400,3.945888427734375,-54.900001525878906,-2.9250001907348633,-9.33750057220459
1659029070605888500,3.955888427734375,-55.01250076293945,-2.8312501907348633,-9.356250762939453
1659029070615888400,3.965888427734375,-54.900001525878906,-3,-9.393750190734863
1659029070625888500,3.975888427734375,-54.993751525878906,-3.0187501907348633,-9.375
1659029070635888400,3.985888427734375,-54.97500228881836,-3.093750238418579,-9.206250190734863
1659029070645888500,3.995888427734375,-54.993751525878906,-3.075000047683716,-9.225000381469727
1659029070655888400,4.005888427734375,-55.16250228881836,-3.3000001907348633,-9.318750381469727
1659029070665888500,4.015888427734375,-55.10625076293945,-3.1312501430511475,-9.393750190734863
1659029070675888400,4.025888427734375,-54.97500228881836,-3.075000047683716,-9.300000190734863
1659029070685888500,4.035888427734375,-55.05000305175781,-3.093750238418579,-9.33750057220459
1659029070695888400,4.045888427734375,-55.01250076293945,-3.2062501907348633,-9.09375
1659029070705888500,4.055888427734375,-54.937503814697266,-3.281250238418579,-9.075000762939453
1659029070715888400,4.065888427734375,-54.900001525878906,-3.3000001907348633,-9.168750762939453
1659029070725888500,4.075888427734375,-55.05000305175781,-3.3375000953674316,-9.262500762939453
1659029070735888400,4.085888427734375,-54.95625305175781,-3.093750238418579,-9.28125
1659029070745888500,4.095888427734375,-54.900001525878906,-3.1125001907348633,-9.33750057220459
1659029070755888400,4.105888427734375,-55.06875228881836,-3.075000047683716,-9.33750057220459
1659029070765888500,4.115888427734375,-55.031253814697266,-3.1500000953674316,-9.112500190734863
1659029070775888400,4.125888427734375,-54.993751525878906,-2.9625000953674316,-9.075000762939453
1659029070785888500,4.135888427734375,-55.087501525878906,-3.075000047683716,-9.168750762939453
1659029070795888400,4.145888427734375,-55.031253814697266,-2.90625,-9.075000762939453
1659029070805888500,4.155888427734375,-54.900001525878906,-2.7750000953674316,-8.8125
1659029070815888400,4.165888427734375,-55.05000305175781,-2.9625000953674316,-8.700000762939453
1659029070825888500,4.175888427734375,-55.29375076293945,-3.1312501430511475,-8.71875
1659029070835888400,4.185888427734375,-55.10625076293945,-3.1500000953674316,-8.831250190734863
1659029070845888500,4.195888427734375,-55.16250228881836,-3,-8.90625
1659029070855888400,4.205888427734375,-55.33125305175781,-3.0375001430511475,-8.850000381469727
1659029070865888500,4.215888427734375,-55.33125305175781,-3.075000047683716,-8.77500057220459
1659029070875888400,4.225888427734375,-55.181251525878906,-3.281250238418579,-8.71875
1659029070885888500,4.235888427734375,-55.29375076293945,-3.3937501907348633,-8.756250381469727
1659029070895888400,4.245888427734375,-55.312503814697266,-3.356250047683716,-8.737500190734863
1659029070905888500,4.255888427734375,-55.031253814697266,-3.2437500953674316,-8.287500381469727
1659029070915888400,4.265888427734375,-54.91875076293945,-3.356250047683716,-8.15625
1659029070925888500,4.275888427734375,-54.67500305175781,-3.5812501907348633,-8.21250057220459
1659029070935888400,4.285888427734375,-54.73125076293945,-3.7125000953674316,-8.175000190734863
1659029070945888500,4.295888427734375,-54.45000076293945,-3.6000001430511475,-8.006250381469727
1659029070955888400,4.305888427734375,-54.48750305175781,-3.6000001430511475,-7.950000286102295
1659029070965888500,4.315888427734375,-54.11250305175781,-3.750000238418579,-7.912500381469727
1659029070975888400,4.325888427734375,-53.88750076293945,-3.9562501907348633,-7.912500381469727
1659029070985888500,4.335888427734375,-53.775001525878906,-4.162500381469727,-8.11875057220459
1659029070995888400,4.345888427734375,-53.73750305175781,-4.21875,-7.818750381469727
1659029071005888500,4.355888427734375,-53.73750305175781,-4.106250286102295,-7.856250286102295
1659029071015888400,4.365888427734375,-53.306251525878906,-4.237500190734863,-7.875000476837158
1659029071025888500,4.375888427734375,-53.51250076293945,-4.40625,-7.762500286102295
1659029071035888400,4.385888427734375,-53.38125228881836,-4.40625,-7.725000381469727
1659029071045888500,4.395888427734375,-53.66250228881836,-4.368750095367432,-7.743750095367432
1659029071055888400,4.405888427734375,-53.868751525878906,-4.237500190734863,-7.687500476837158
1659029071065888500,4.415888427734375,-53.94375228881836,-4.03125,-7.593750476837158
1659029071075888400,4.425888427734375,-53.906253814697266,-4.087500095367432,-7.893750190734863
1659029071085888500,4.435888427734375,-54.056251525878906,-4.03125,-7.706250190734863
1659029071095888400,4.445888427734375,-54.243751525878906,-4.012500286102295,-7.818750381469727
1659029071105888500,4.455888427734375,-54.20625305175781,-4.03125,-7.987500190734863
1659029071115888400,4.465888427734375,-54.41250228881836,-4.068750381469727,-8.02500057220459
1659029071125888500,4.475888427734375,-54.01875305175781,-4.3125,-7.875000476837158
1659029071135888400,4.485888427734375,-53.55000305175781,-4.237500190734863,-7.856250286102295
1659029071145888500,4.495888427734375,-53.64375305175781,-4.462500095367432,-7.743750095367432
1659029071155888400,4.505888427734375,-53.775001525878906,-4.40625,-7.668750286102295
1659029071165888500,4.515888427734375,-53.625003814697266,-4.743750095367432,-7.631250381469727
1659029071175888400,4.525888427734375,-53.531253814697266,-4.556250095367432,-7.593750476837158
1659029071185888500,4.535888427734375,-53.41875076293945,-4.518750190734863,-7.425000190734863
1659029071195888400,4.545888427734375,-53.400001525878906,-4.481250286102295,-7.312500476837158
1659029071205888500,4.555888427734375,-53.625003814697266,-4.350000381469727,-7.218750476837158
1659029071215888400,4.565888427734375,-53.85000228881836,-4.3125,-7.125000476837158
1659029071225888500,4.575888427734375,-53.64375305175781,-4.368750095367432,-7.050000190734863
1659029071235888400,4.585888427734375,-53.36250305175781,-4.331250190734863,-7.162500381469727
1659029071245888500,4.595888427734375,-53.28750228881836,-4.162500381469727,-7.143750190734863
1659029071255888400,4.605888427734375,-53.36250305175781,-4.200000286102295,-7.106250286102295
1659029071265888500,4.615888427734375,-53.17500305175781,-4.200000286102295,-7.068750381469727
1659029071275888400,4.625888427734375,-53.08125305175781,-4.481250286102295,-7.275000095367432
1659029071285888500,4.635888427734375,-53.04375076293945,-4.387500286102295,-7.350000381469727
1659029071295888400,4.645888427734375,-53.156253814697266,-4.443750381469727,-7.350000381469727
1659029071305888500,4.655888427734375,-53.10000228881836,-4.200000286102295,-7.481250286102295
1659029071315888400,4.665888427734375,-53.19375228881836,-4.143750190734863,-7.387500286102295
1659029071325888500,4.675888427734375,-53.13750076293945,-4.387500286102295,-7.275000095367432
1659029071335888400,4.685888427734375,-53.08125305175781,-4.425000190734863,-7.331250190734863
1659029071345888500,4.695888427734375,-53.19375228881836,-4.162500381469727,-7.181250095367432
1659029071355888400,4.705888427734375,-53.062503814697266,-3.731250047683716,-6.993750095367432
1659029071365888500,4.715888427734375,-52.968753814697266,-3.750000238418579,-7.181250095367432
1659029071375888400,4.725888427734375,-52.76250076293945,-3.8062500953674316,-7.275000095367432
1659029071385888500,4.735888427734375,-52.875003814697266,-3.6000001430511475,-7.237500190734863
1659029071395888400,4.745888427734375,-52.91250228881836,-3.5062501430511475,-7.200000286102295
1659029071405888500,4.755888427734375,-52.72500228881836,-3.075000047683716,-7.425000190734863
1659029071415888400,4.765888427734375,-52.80000305175781,-2.981250047683716,-7.237500190734863
1659029071425888500,4.775888427734375,-52.66875076293945,-2.8500001430511475,-7.462500095367432
1659029071435888400,4.785888427734375,-52.687503814697266,-2.6812500953674316,-7.443750381469727
1659029071445888500,4.795888427734375,-52.66875076293945,-2.4750001430511475,-7.556250095367432
1659029071455888400,4.805888427734375,-52.70625305175781,-2.231250047683716,-7.518750190734863
1659029071465888500,4.815888427734375,-52.85625076293945,-2.137500047683716,-7.668750286102295
1659029071475888400,4.825888427734375,-52.85625076293945,-2.0062501430511475,-7.687500476837158
1659029071485888500,4.835888427734375,-53.08125305175781,-1.9687501192092896,-7.462500095367432
1659029071495888400,4.845888427734375,-53.04375076293945,-1.7812501192092896,-7.556250095367432
1659029071505888500,4.855888427734375,-53.118751525878906,-1.818750023841858,-7.556250095367432
1659029071515888400,4.865888427734375,-53.08125305175781,-1.7437500953674316,-7.668750286102295
1659029071525888500,4.875888427734375,-53.08125305175781,-1.8562500476837158,-7.556250095367432
1659029071535888400,4.885888427734375,-53.062503814697266,-2.0250000953674316,-7.687500476837158
1659029071545888500,4.895888427734375,-53.00625228881836,-2.15625,-7.631250381469727
1659029071555888400,4.905888427734375,-52.91250228881836,-2.1937501430511475,-7.687500476837158
1659029071565888500,4.915888427734375,-52.89375305175781,-2.0625,-7.893750190734863
1659029071575888400,4.925888427734375,-52.81875228881836,-2.137500047683716,-7.968750476837158
1659029071585888500,4.935888427734375,-52.89375305175781,-2.231250047683716,-8.0625
1659029071595888400,4.945888427734375,-52.968753814697266,-2.5875000953674316,-8.25
1659029071605888500,4.955888427734375,-53.10000228881836,-2.512500047683716,-8.193750381469727
1659029071615888400,4.965888427734375,-53.17500305175781,-2.4937500953674316,-8.175000190734863
1659029071625888500,4.975888427734375,-53.250003814697266,-2.5875000953674316,-8.325000762939453
1659029071635888400,4.985888427734375,-53.28750228881836,-2.3625001907348633,-8.231250762939453
1659029071645888500,4.995888427734375,-53.400001525878906,-2.4562501907348633,-8.231250762939453
1659029071655888400,5.005888427734375,-53.55000305175781,-2.512500047683716,-7.912500381469727
1659029071665888500,5.015888427734375,-53.681251525878906,-2.3812501430511475,-7.837500095367432
1659029071675888400,5.025888427734375,-53.66250228881836,-2.3625001907348633,-7.556250095367432
1659029071685888500,5.035888427734375,-53.493751525878906,-2.3062500953674316,-7.406250476837158
1659029071695888400,5.045888427734375,-53.437503814697266,-2.25,-7.162500381469727
1659029071705888500,5.055888427734375,-53.38125228881836,-2.1750001907348633,-6.975000381469727
1659029071715888400,5.065888427734375,-53.437503814697266,-2.5687501430511475,-6.937500476837158
1659029071725888500,5.075888427734375,-53.250003814697266,-2.4937500953674316,-6.806250095367432
1659029071735888400,5.085888427734375,-53.250003814697266,-2.4937500953674316,-6.918750286102295
1659029071745888500,5.095888427734375,-53.17500305175781,-2.71875,-6.937500476837158
1659029071755888400,5.105888427734375,-53.13750076293945,-2.71875,-6.975000381469727
1659029071765888500,5.115888427734375,-53.250003814697266,-2.8125,-7.162500381469727
1659029071775888400,5.125888427734375,-53.23125076293945,-2.981250047683716,-7.200000286102295
1659029071785888500,5.135888427734375,-53.32500076293945,-2.9437501430511475,-7.200000286102295
1659029071795888400,5.145888427734375,-53.306251525878906,-2.7750000953674316,-7.143750190734863
1659029071805888500,5.155888427734375,-53.55000305175781,-2.9625000953674316,-7.275000095367432
1659029071815888400,5.165888427734375,-53.531253814697266,-2.981250047683716,-7.256250381469727
1659029071825888500,5.175888427734375,-53.75625228881836,-2.8312501907348633,-7.106250286102295
1659029071835888400,5.185888427734375,-53.79375076293945,-2.981250047683716,-7.031250476837158
1659029071845888500,5.195888427734375,-53.98125076293945,-3.0562500953674316,-6.881250381469727
1659029071855888400,5.205888427734375,-53.98125076293945,-2.9250001907348633,-6.881250381469727
1659029071865888500,5.215888427734375,-53.775001525878906,-3.1125001907348633,-6.825000286102295
1659029071875888400,5.225888427734375,-53.868751525878906,-3.0187501907348633,-6.862500190734863
1659029071885888500,5.235888427734375,-53.775001525878906,-2.981250047683716,-6.806250095367432
1659029071895888400,5.245888427734375,-53.94375228881836,-2.9625000953674316,-6.712500095367432
1659029071905888500,5.255888427734375,-53.681251525878906,-3.1125001907348633,-6.712500095367432
1659029071915888400,5.265888427734375,-53.775001525878906,-3.0375001430511475,-6.768750190734863
1659029071925888500,5.275888427734375,-53.75625228881836,-3.0562500953674316,-6.881250381469727
1659029071935888400,5.285888427734375,-53.88750076293945,-3.187500238418579,-7.031250476837158
1659029071945888500,5.295888427734375,-53.85000228881836,-3.075000047683716,-6.975000381469727
1659029071955888400,5.305888427734375,-53.94375228881836,-3.2062501907348633,-6.900000095367432
1659029071965888500,5.315888427734375,-54.13125228881836,-3.5250000953674316,-6.806250095367432
1659029071975888400,5.325888427734375,-54.16875076293945,-3.656250238418579,-6.975000381469727
1659029071985888500,5.335888427734375,-54.22500228881836,-3.6937501430511475,-7.012500286102295
1659029071995888400,5.345888427734375,-54.22500228881836,-3.6937501430511475,-7.106250286102295
1659029072005888500,5.355888427734375,-54.281253814697266,-3.6000001430511475,-6.975000381469727
1659029072015888400,5.365888427734375,-54.281253814697266,-3.543750047683716,-6.712500095367432
1659029072025888500,5.375888427734375,-54.562503814697266,-3.8062500953674316,-6.637500286102295
1659029072035888400,5.385888427734375,-54.67500305175781,-4.03125,-6.731250286102295
1659029072045888500,5.395888427734375,-54.73125076293945,-3.8812501430511475,-6.675000190734863
1659029072055888400,5.405888427734375,-54.750003814697266,-3.825000047683716,-6.487500190734863
1659029072065888500,5.415888427734375,-54.750003814697266,-3.8812501430511475,-6.525000095367432
1659029072075888400,5.425888427734375,-54.843753814697266,-3.9000000953674316,-6.487500190734863
1659029072085888500,5.435888427734375,-54.76875305175781,-4.012500286102295,-6.337500095367432
1659029072095888400,5.445888427734375,-54.86250305175781,-4.181250095367432,-6.450000286102295
1659029072105888500,5.455888427734375,-54.88125228881836,-3.9000000953674316,-6.487500190734863
1659029072115888400,5.465888427734375,-54.88125228881836,-3.8062500953674316,-6.262500286102295
1659029072125888500,5.475888427734375,-54.73125076293945,-3.731250047683716,-6.356250286102295
1659029072135888400,5.485888427734375,-54.525001525878906,-3.750000238418579,-6.262500286102295
1659029072145888500,5.495888427734375,-54.468753814697266,-3.731250047683716,-6.131250381469727
1659029072155888400,5.505888427734375,-54.39375305175781,-3.843750238418579,-6.037500381469727
1659029072165888500,5.515888427734375,-54.431251525878906,-3.9562501907348633,-6.056250095367432
1659029072175888400,5.525888427734375,-54.337501525878906,-3.750000238418579,-6
1659029072185888500,5.535888427734375,-54.093753814697266,-4.068750381469727,-6.075000286102295
1659029072195888400,5.545888427734375,-53.85000228881836,-4.106250286102295,-6.168750286102295
1659029072205888500,5.555888427734375,-53.88750076293945,-4.3125,-6.075000286102295
1659029072215888400,5.565888427734375,-53.75625228881836,-4.462500095367432,-6.281250476837158
1659029072225888500,5.575888427734375,-54.01875305175781,-4.668750286102295,-6.168750286102295
1659029072235888400,5.585888427734375,-54.03750228881836,-4.650000095367432,-6.187500476837158
1659029072245888500,5.595888427734375,-53.962501525878906,-4.725000381469727,-6.206250190734863
1659029072255888400,5.605888427734375,-54.000003814697266,-4.78125,-6.187500476837158
1659029072265888500,5.615888427734375,-53.98125076293945,-4.5,-5.962500095367432
1659029072275888400,5.625888427734375,-53.94375228881836,-4.59375,-5.925000190734863
1659029072285888500,5.635888427734375,-53.775001525878906,-4.425000190734863,-5.831250190734863
1659029072295888400,5.645888427734375,-54.056251525878906,-4.293750286102295,-5.868750095367432
1659029072305888500,5.655888427734375,-53.962501525878906,-4.03125,-5.943750381469727
1659029072315888400,5.665888427734375,-54.03750228881836,-4.050000190734863,-6.018750190734863
1659029072325888500,5.675888427734375,-54.093753814697266,-4.050000190734863,-6.056250095367432
1659029072335888400,5.685888427734375,-54.093753814697266,-4.3125,-6.168750286102295
1659029072345888500,5.695888427734375,-54.243751525878906,-4.6875,-6.225000381469727
1659029072355888400,5.705888427734375,-54.35625076293945,-4.668750286102295,-6.375000476837158
1659029072365888500,5.715888427734375,-54.562503814697266,-4.837500095367432,-6.487500190734863
1659029072375888400,5.725888427734375,-54.35625076293945,-5.043750286102295,-6.468750476837158
1659029072385888500,5.735888427734375,-54.39375305175781,-5.15625,-6.731250286102295
1659029072395888400,5.745888427734375,-54.26250076293945,-5.081250190734863,-6.787500381469727
1659029072405888500,5.755888427734375,-54.30000305175781,-5.118750095367432,-6.843750476837158
1659029072415888400,5.765888427734375,-54.281253814697266,-5.137500286102295,-6.862500190734863
1659029072425888500,5.775888427734375,-53.98125076293945,-4.96875,-6.843750476837158
1659029072435888400,5.785888427734375,-54.13125228881836,-4.856250286102295,-6.581250190734863
1659029072445888500,5.795888427734375,-53.88750076293945,-4.668750286102295,-6.768750190734863
1659029072455888400,5.805888427734375,-53.83125305175781,-4.387500286102295,-6.712500095367432
1659029072465888500,5.815888427734375,-53.60625076293945,-4.575000286102295,-6.487500190734863
1659029072475888400,5.825888427734375,-53.45625305175781,-4.556250095367432,-6.318750381469727
1659029072485888500,5.835888427734375,-53.28750228881836,-4.40625,-6.318750381469727
1659029072495888400,5.845888427734375,-53.38125228881836,-4.3125,-6.206250190734863
1659029072505888500,5.855888427734375,-53.587501525878906,-4.3125,-6.393750190734863
1659029072515888400,5.865888427734375,-53.38125228881836,-4.612500190734863,-6.750000476837158
1659029072525888500,5.875888427734375,-53.493751525878906,-4.78125,-6.637500286102295
1659029072535888400,5.885888427734375,-53.625003814697266,-5.025000095367432,-6.600000381469727
1659029072545888500,5.895888427734375,-53.70000076293945,-5.025000095367432,-6.768750190734863
1659029072555888400,5.905888427734375,-54.056251525878906,-5.118750095367432,-6.900000095367432
1659029072565888500,5.915888427734375,-54.07500076293945,-5.081250190734863,-6.787500381469727
1659029072575888400,5.925888427734375,-53.868751525878906,-5.081250190734863,-6.806250095367432
1659029072585888500,5.935888427734375,-53.88750076293945,-5.006250381469727,-6.787500381469727
1659029072595888400,5.945888427734375,-53.94375228881836,-4.78125,-6.731250286102295
1659029072605888500,5.955888427734375,-54.03750228881836,-4.78125,-6.862500190734863
1659029072615888400,5.965888427734375,-53.94375228881836,-4.743750095367432,-6.975000381469727
1659029072625888500,5.975888427734375,-54.16875076293945,-4.518750190734863,-6.881250381469727
1659029072635888400,5.985888427734375,-53.83125305175781,-4.59375,-6.768750190734863
1659029072645888500,5.995888427734375,-54.000003814697266,-4.818750381469727,-6.937500476837158
1659029072655888400,6.005888427734375,-54.187503814697266,-4.931250095367432,-7.012500286102295
1659029072665888500,6.015888427734375,-54.26250076293945,-5.231250286102295,-7.275000095367432
1659029072675888400,6.025888427734375,-54.26250076293945,-5.268750190734863,-7.237500190734863
1659029072685888500,6.035888427734375,-54.26250076293945,-5.175000190734863,-7.050000190734863
1659029072695888400,6.045888427734375,-54.03750228881836,-5.325000286102295,-7.012500286102295
1659029072705888500,6.055888427734375,-53.625003814697266,-5.53125,-6.806250095367432
1659029072715888400,6.065888427734375,-53.70000076293945,-5.493750095367432,-6.675000190734863
1659029072725888500,6.075888427734375,-53.493751525878906,-5.456250190734863,-6.562500476837158
1659029072735888400,6.085888427734375,-53.400001525878906,-5.4375,-6.281250476837158
1659029072745888500,6.095888427734375,-53.13750076293945,-5.287500381469727,-5.756250381469727
1659029072755888400,6.105888427734375,-53.19375228881836,-5.325000286102295,-5.681250095367432
1659029072765888500,6.115888427734375,-53.025001525878906,-5.568750381469727,-5.53125
1659029072775888400,6.125888427734375,-53.28750228881836,-5.643750190734863,-5.625
1659029072785888500,6.135888427734375,-53.55000305175781,-5.587500095367432,-5.737500190734863
1659029072795888400,6.145888427734375,-53.38125228881836,-5.662500381469727,-6.018750190734863
1659029072805888500,6.155888427734375,-53.41875076293945,-5.775000095367432,-6.018750190734863
1659029072815888400,6.165888427734375,-53.28750228881836,-5.662500381469727,-6.375000476837158
1659029072825888500,6.175888427734375,-53.45625305175781,-5.71875,-6.656250476837158
1659029072835888400,6.185888427734375,-53.343753814697266,-5.868750095367432,-6.825000286102295
1659029072845888500,6.195888427734375,-53.062503814697266,-6.037500381469727,-7.087500095367432
1659029072855888400,6.205888427734375,-52.743751525878906,-6.093750476837158,-7.012500286102295
1659029072865888500,6.215888427734375,-52.44375228881836,-6.225000381469727,-6.843750476837158
1659029072875888400,6.225888427734375,-52.593753814697266,-6.281250476837158,-6.693750381469727
1659029072885888500,6.235888427734375,-52.63125228881836,-6.243750095367432,-6.693750381469727
1659029072895888400,6.245888427734375,-52.57500076293945,-6.468750476837158,-6.618750095367432
1659029072905888500,6.255888427734375,-52.462501525878906,-6.675000190734863,-6.543750286102295
1659029072915888400,6.265888427734375,-52.23750305175781,-6.543750286102295,-6.356250286102295
1659029072925888500,6.275888427734375,-52.031253814697266,-6.318750381469727,-6.431250095367432
1659029072935888400,6.285888427734375,-51.91875076293945,-6.262500286102295,-6.450000286102295
1659029072945888500,6.295888427734375,-51.91875076293945,-6.356250286102295,-6.637500286102295
1659029072955888400,6.305888427734375,-51.78750228881836,-6.487500190734863,-6.581250190734863
1659029072965888500,6.315888427734375,-51.562503814697266,-6.581250190734863,-6.750000476837158
1659029072975888400,6.325888427734375,-51.337501525878906,-6.525000095367432,-6.637500286102295
1659029072985888500,6.335888427734375,-50.962501525878906,-6.337500095367432,-6.337500095367432
1659029072995888400,6.345888427734375,-50.868751525878906,-6.168750286102295,-6.450000286102295
1659029073005888500,6.355888427734375,-51.150001525878906,-6.243750095367432,-6.206250190734863
1659029073015888400,6.365888427734375,-51.093753814697266,-6.225000381469727,-6.131250381469727
1659029073025888500,6.375888427734375,-50.812503814697266,-6.206250190734863,-6.112500190734863
1659029073035888400,6.385888427734375,-50.66250228881836,-5.943750381469727,-6.318750381469727
1659029073045888500,6.395888427734375,-50.41875076293945,-5.868750095367432,-6.243750095367432
1659029073055888400,6.405888427734375,-50.38125228881836,-5.868750095367432,-6.375000476837158
1659029073065888500,6.415888427734375,-50.38125228881836,-5.962500095367432,-6.562500476837158
1659029073075888400,6.425888427734375,-50.41875076293945,-6.131250381469727,-6.450000286102295
1659029073085888500,6.435888427734375,-50.156253814697266,-6.093750476837158,-6.712500095367432
1659029073095888400,6.445888427734375,-50.13750076293945,-5.793750286102295,-6.787500381469727
1659029073105888500,6.455888427734375,-50.41875076293945,-5.8125,-7.050000190734863
1659029073115888400,6.465888427734375,-50.47500228881836,-5.756250381469727,-7.012500286102295
1659029073125888500,6.475888427734375,-50.38125228881836,-5.662500381469727,-6.918750286102295
1659029073135888400,6.485888427734375,-50.32500076293945,-5.475000381469727,-6.750000476837158
1659029073145888500,6.495888427734375,-50.212501525878906,-5.193750381469727,-6.975000381469727
1659029073155888400,6.505888427734375,-50.19375228881836,-5.006250381469727,-6.956250190734863
1659029073165888500,6.515888427734375,-50.51250076293945,-4.912500381469727,-6.731250286102295
1659029073175888400,6.525888427734375,-50.51250076293945,-4.818750381469727,-6.562500476837158
1659029073185888500,6.535888427734375,-50.118751525878906,-4.518750190734863,-6.318750381469727
1659029073195888400,6.545888427734375,-49.98750305175781,-4.518750190734863,-6.281250476837158
1659029073205888500,6.555888427734375,-50.062503814697266,-4.40625,-6.168750286102295
1659029073215888400,6.565888427734375,-49.95000076293945,-4.087500095367432,-6.056250095367432
1659029073225888500,6.575888427734375,-49.875003814697266,-4.106250286102295,-6.037500381469727
1659029073235888400,6.585888427734375,-49.72500228881836,-4.256250381469727,-6.018750190734863
1659029073245888500,6.595888427734375,-49.61250305175781,-4.181250095367432,-6.187500476837158
1659029073255888400,6.605888427734375,-49.63125228881836,-4.162500381469727,-6.150000095367432
1659029073265888500,6.615888427734375,-49.781253814697266,-3.9750001430511475,-6.112500190734863
1659029073275888400,6.625888427734375,-49.81875228881836,-3.6937501430511475,-6.075000286102295
1659029073285888500,6.635888427734375,-49.687503814697266,-3.4875001907348633,-6.131250381469727
1659029073295888400,6.645888427734375,-49.687503814697266,-3.468750238418579,-6.281250476837158
1659029073305888500,6.655888427734375,-49.70625305175781,-3.356250047683716,-6.037500381469727
1659029073315888400,6.665888427734375,-49.70625305175781,-3,-6.018750190734863
1659029073325888500,6.675888427734375,-49.687503814697266,-2.8312501907348633,-5.90625
1659029073335888400,6.685888427734375,-49.70625305175781,-2.71875,-5.793750286102295
1659029073345888500,6.695888427734375,-49.70625305175781,-2.6812500953674316,-5.8125
1659029073355888400,6.705888427734375,-49.76250076293945,-2.5875000953674316,-5.756250381469727
1659029073365888500,6.715888427734375,-49.95000076293945,-2.512500047683716,-5.868750095367432
1659029073375888400,6.725888427734375,-50.23125076293945,-2.606250047683716,-5.850000381469727
1659029073385888500,6.735888427734375,-50.38125228881836,-2.3625001907348633,-5.793750286102295
1659029073395888400,6.745888427734375,-50.493751525878906,-2.418750047683716,-5.775000095367432
1659029073405888500,6.755888427734375,-50.70000076293945,-2.25,-5.606250286102295
1659029073415888400,6.765888427734375,-50.75625228881836,-2.34375,-5.8125
1659029073425888500,6.775888427734375,-50.868751525878906,-2.043750047683716,-5.662500381469727
1659029073435888400,6.785888427734375,-50.868751525878906,-2.0250000953674316,-5.568750381469727
1659029073445888500,6.795888427734375,-50.812503814697266,-2.1937501430511475,-5.25
1659029073455888400,6.805888427734375,-50.531253814697266,-2.0062501430511475,-5.193750381469727
1659029073465888500,6.815888427734375,-50.73750305175781,-2.0250000953674316,-5.400000095367432
1659029073475888400,6.825888427734375,-51.01875305175781,-1.9875000715255737,-5.550000190734863
1659029073485888500,6.835888427734375,-50.83125305175781,-2.0812501907348633,-5.325000286102295
1659029073495888400,6.845888427734375,-50.906253814697266,-1.9875000715255737,-5.193750381469727
1659029073505888500,6.855888427734375,-50.98125076293945,-2.1937501430511475,-5.25
1659029073515888400,6.865888427734375,-50.906253814697266,-2.1937501430511475,-5.400000095367432
1659029073525888500,6.875888427734375,-51.000003814697266,-2.043750047683716,-5.456250190734863
1659029073535888400,6.885888427734375,-51.31875228881836,-2.0250000953674316,-5.568750381469727
1659029073545888500,6.895888427734375,-51.281253814697266,-1.9875000715255737,-5.625
1659029073555888400,6.905888427734375,-51.07500076293945,-1.8937500715255737,-5.4375
1659029073565888500,6.915888427734375,-51.000003814697266,-1.912500023841858,-5.53125
1659029073575888400,6.925888427734375,-50.962501525878906,-1.9500000476837158,-5.493750095367432
1659029073585888500,6.935888427734375,-51.01875305175781,-1.8562500476837158,-5.550000190734863
1659029073595888400,6.945888427734375,-51.000003814697266,-1.7812501192092896,-5.4375
1659029073605888500,6.955888427734375,-51.16875076293945,-1.6875001192092896,-5.475000381469727
1659029073615888400,6.965888427734375,-50.94375228881836,-1.725000023841858,-5.381250381469727
1659029073625888500,6.975888427734375,-51.07500076293945,-1.8000000715255737,-5.175000190734863
1659029073635888400,6.985888427734375,-51.337501525878906,-1.6875001192092896,-5.25
1659029073645888500,6.995888427734375,-51.73125076293945,-1.4250000715255737,-5.456250190734863
1659029073655888400,7.005888427734375,-51.73125076293945,-1.256250023841858,-5.53125
1659029073665888500,7.015888427734375,-51.63750076293945,-1.5937501192092896,-5.587500095367432
1659029073675888400,7.025888427734375,-51.750003814697266,-1.8000000715255737,-5.456250190734863
1659029073685888500,7.035888427734375,-51.69375228881836,-1.8750001192092896,-5.475000381469727
1659029073695888400,7.045888427734375,-51.88125228881836,-1.8750001192092896,-5.362500190734863
1659029073705888500,7.055888427734375,-51.73125076293945,-1.6500000953674316,-5.475000381469727
1659029073715888400,7.065888427734375,-51.54375076293945,-1.7812501192092896,-5.512500286102295
1659029073725888500,7.075888427734375,-51.375003814697266,-1.9687501192092896,-5.568750381469727
1659029073735888400,7.085888427734375,-51.48750305175781,-2.0812501907348633,-5.681250095367432
1659029073745888500,7.095888427734375,-51.50625228881836,-1.8937500715255737,-5.662500381469727
1659029073755888400,7.105888427734375,-51.78750228881836,-1.8375000953674316,-5.662500381469727
1659029073765888500,7.115888427734375,-51.806251525878906,-1.6500000953674316,-5.625
1659029073775888400,7.125888427734375,-51.91875076293945,-1.7062500715255737,-5.756250381469727
1659029073785888500,7.135888427734375,-51.900001525878906,-2.0625,-5.700000286102295
1659029073795888400,7.145888427734375,-52.05000305175781,-2.1187500953674316,-5.568750381469727
1659029073805888500,7.155888427734375,-52.031253814697266,-2.1750001907348633,-5.193750381469727
1659029073815888400,7.165888427734375,-52.01250076293945,-2.1937501430511475,-5.043750286102295
1659029073825888500,7.175888427734375,-52.10625076293945,-2.2125000953674316,-4.893750190734863
1659029073835888400,7.185888427734375,-52.05000305175781,-2.137500047683716,-5.025000095367432
1659029073845888500,7.195888427734375,-51.95625305175781,-2.418750047683716,-5.0625
1659029073855888400,7.205888427734375,-52.05000305175781,-2.512500047683716,-5.15625
1659029073865888500,7.215888427734375,-52.087501525878906,-2.4375,-4.96875
1659029073875888400,7.225888427734375,-52.10625076293945,-2.512500047683716,-5.043750286102295
1659029073885888500,7.235888427734375,-52.16250228881836,-2.5500001907348633,-5.287500381469727
1659029073895888400,7.245888427734375,-52.23750305175781,-2.7375001907348633,-5.0625
1659029073905888500,7.255888427734375,-52.218753814697266,-2.6437501907348633,-5.193750381469727
1659029073915888400,7.265888427734375,-52.06875228881836,-2.90625,-5.0625
1659029073925888500,7.275888427734375,-52.06875228881836,-2.8500001430511475,-4.837500095367432
1659029073935888400,7.285888427734375,-51.843753814697266,-2.8500001430511475,-4.78125
1659029073945888500,7.295888427734375,-51.97500228881836,-2.8500001430511475,-4.931250095367432
1659029073955888400,7.305888427734375,-51.843753814697266,-2.6812500953674316,-4.78125
1659029073965888500,7.315888427734375,-51.750003814697266,-2.700000047683716,-4.78125
1659029073975888400,7.325888427734375,-51.618751525878906,-2.606250047683716,-5.0625
1659029073985888500,7.335888427734375,-51.525001525878906,-2.8312501907348633,-5.137500286102295
1659029073995888400,7.345888427734375,-51.45000076293945,-2.71875,-5.212500095367432
1659029074005888500,7.355888427734375,-51.337501525878906,-2.8687500953674316,-5.381250381469727
1659029074015888400,7.365888427734375,-51.63750076293945,-2.8500001430511475,-5.381250381469727
1659029074025888500,7.375888427734375,-51.69375228881836,-2.8500001430511475,-5.550000190734863
1659029074035888400,7.385888427734375,-51.618751525878906,-2.8500001430511475,-5.625
1659029074045888500,7.395888427734375,-51.58125305175781,-2.9625000953674316,-5.662500381469727
1659029074055888400,7.405888427734375,-51.58125305175781,-3,-5.662500381469727
1659029074065888500,7.415888427734375,-51.82500076293945,-3,-5.475000381469727
1659029074075888400,7.425888427734375,-51.937503814697266,-2.8312501907348633,-5.456250190734863
1659029074085888500,7.435888427734375,-52.35000228881836,-2.606250047683716,-5.568750381469727
1659029074095888400,7.445888427734375,-52.10625076293945,-2.6625001430511475,-5.550000190734863
1659029074105888500,7.455888427734375,-52.031253814697266,-2.625,-5.512500286102295
1659029074115888400,7.465888427734375,-52.23750305175781,-2.793750047683716,-5.587500095367432
1659029074125888500,7.475888427734375,-52.500003814697266,-2.7562501430511475,-5.662500381469727
1659029074135888400,7.485888427734375,-52.406253814697266,-2.6812500953674316,-5.71875
1659029074145888500,7.495888427734375,-52.23750305175781,-2.4562501907348633,-5.587500095367432
1659029074155888400,7.505888427734375,-52.275001525878906,-2.7375001907348633,-5.756250381469727
1659029074165888500,7.515888427734375,-52.275001525878906,-2.5875000953674316,-5.700000286102295
1659029074175888400,7.525888427734375,-52.406253814697266,-2.4375,-5.587500095367432
1659029074185888500,7.535888427734375,-52.462501525878906,-2.5500001907348633,-5.568750381469727
1659029074195888400,7.545888427734375,-52.38750076293945,-2.4750001430511475,-5.512500286102295
1659029074205888500,7.555888427734375,-52.42500305175781,-2.5687501430511475,-5.456250190734863
1659029074215888400,7.565888427734375,-52.76250076293945,-2.5500001907348633,-5.325000286102295
1659029074225888500,7.575888427734375,-52.81875228881836,-2.8125,-5.681250095367432
1659029074235888400,7.585888427734375,-52.95000076293945,-2.6437501907348633,-5.4375
1659029074245888500,7.595888427734375,-52.70625305175781,-2.793750047683716,-5.400000095367432
1659029074255888400,7.605888427734375,-52.875003814697266,-2.8312501907348633,-5.34375
1659029074265888500,7.615888427734375,-52.89375305175781,-2.90625,-5.325000286102295
1659029074275888400,7.625888427734375,-52.91250228881836,-2.6625001430511475,-5.512500286102295
1659029074285888500,7.635888427734375,-52.593753814697266,-2.4375,-5.568750381469727
1659029074295888400,7.645888427734375,-52.406253814697266,-2.418750047683716,-5.550000190734863
1659029074305888500,7.655888427734375,-52.556251525878906,-2.25,-5.475000381469727
1659029074315888400,7.665888427734375,-52.53750228881836,-2.25,-5.643750190734863
1659029074325888500,7.675888427734375,-52.53750228881836,-2.1937501430511475,-5.587500095367432
1659029074335888400,7.685888427734375,-52.368751525878906,-2.0062501430511475,-5.625
1659029074345888500,7.695888427734375,-52.16250228881836,-1.6875001192092896,-5.568750381469727
1659029074355888400,7.705888427734375,-52.125003814697266,-2.15625,-5.34375
1659029074365888500,7.715888427734375,-51.993751525878906,-2.2125000953674316,-5.268750190734863
1659029074375888400,7.725888427734375,-52.01250076293945,-2.1937501430511475,-5.4375
1659029074385888500,7.735888427734375,-51.843753814697266,-2.2687501907348633,-5.475000381469727
1659029074395888400,7.745888427734375,-51.712501525878906,-2.1750001907348633,-5.418750286102295
1659029074405888500,7.755888427734375,-51.73125076293945,-2.25,-5.606250286102295
1659029074415888400,7.765888427734375,-51.67500305175781,-2.34375,-5.662500381469727
1659029074425888500,7.775888427734375,-51.73125076293945,-2.4937500953674316,-6.018750190734863
1659029074435888400,7.785888427734375,-51.82500076293945,-2.1750001907348633,-5.887500286102295
1659029074445888500,7.795888427734375,-52.031253814697266,-2.15625,-5.943750381469727
1659029074455888400,7.805888427734375,-51.95625305175781,-2.1750001907348633,-5.831250190734863
1659029074465888500,7.815888427734375,-51.91875076293945,-1.9875000715255737,-5.737500190734863
1659029074475888400,7.825888427734375,-52.06875228881836,-2.0812501907348633,-5.831250190734863
1659029074485888500,7.835888427734375,-52.181251525878906,-2.0812501907348633,-5.568750381469727
1659029074495888400,7.845888427734375,-52.25625228881836,-2.0625,-5.587500095367432
1659029074505888500,7.855888427734375,-52.312503814697266,-1.8750001192092896,-5.212500095367432
1659029074515888400,7.865888427734375,-52.181251525878906,-1.9687501192092896,-5.550000190734863
1659029074525888500,7.875888427734375,-52.20000076293945,-1.912500023841858,-5.34375
1659029074535888400,7.885888427734375,-52.33125305175781,-1.8375000953674316,-5.362500190734863
1659029074545888500,7.895888427734375,-52.218753814697266,-1.7437500953674316,-5.325000286102295
1659029074555888400,7.905888427734375,-51.993751525878906,-1.631250023841858,-5.212500095367432
1659029074565888500,7.915888427734375,-51.82500076293945,-1.6125000715255737,-5.231250286102295
1659029074575888400,7.925888427734375,-51.73125076293945,-1.7062500715255737,-5.006250381469727
1659029074585888500,7.935888427734375,-51.82500076293945,-1.8000000715255737,-5.006250381469727
1659029074595888400,7.945888427734375,-51.91875076293945,-1.6875001192092896,-4.800000190734863
1659029074605888500,7.955888427734375,-52.05000305175781,-1.8375000953674316,-4.78125
1659029074615888400,7.965888427734375,-51.91875076293945,-1.9500000476837158,-4.6875
1659029074625888500,7.975888427734375,-52.125003814697266,-1.912500023841858,-4.706250190734863
1659029074635888400,7.985888427734375,-52.10625076293945,-1.8000000715255737,-4.800000190734863
1659029074645888500,7.995888427734375,-52.10625076293945,-1.8562500476837158,-4.931250095367432
1659029074655888400,8.005888427734375,-52.181251525878906,-1.5562500953674316,-4.987500190734863
1659029074665888500,8.015888427734374,-52.20000076293945,-1.5562500953674316,-5.175000190734863
1659029074675888400,8.025888427734374,-52.20000076293945,-1.537500023841858,-5.025000095367432
1659029074685888500,8.035888427734376,-52.031253814697266,-1.3875000476837158,-4.912500381469727
1659029074695888400,8.045888427734376,-52.29375076293945,-1.3312500715255737,-4.743750095367432
1659029074705888500,8.055888427734375,-52.23750305175781,-1.4250000715255737,-4.743750095367432
1659029074715888400,8.065888427734375,-52.33125305175781,-1.5937501192092896,-4.481250286102295
1659029074725888500,8.075888427734375,-52.42500305175781,-1.4812500476837158,-4.481250286102295
1659029074735888400,8.085888427734375,-52.556251525878906,-1.725000023841858,-4.612500190734863
1659029074745888500,8.095888427734375,-52.406253814697266,-1.7437500953674316,-4.443750381469727
1659029074755888400,8.105888427734374,-52.406253814697266,-1.8375000953674316,-4.5
1659029074765888500,8.115888427734374,-52.406253814697266,-2.0250000953674316,-4.743750095367432
1659029074775888400,8.125888427734376,-52.181251525878906,-2.043750047683716,-5.137500286102295
1659029074785888500,8.135888427734375,-52.38750076293945,-2.1750001907348633,-5.118750095367432
1659029074795888400,8.145888427734375,-52.500003814697266,-2.231250047683716,-5.287500381469727
1659029074805888500,8.155888427734375,-52.61250305175781,-2.325000047683716,-5.212500095367432
1659029074815888400,8.165888427734375,-52.406253814697266,-2.231250047683716,-5.0625
1659029074825888500,8.175888427734375,-52.51875305175781,-2.0625,-4.950000286102295
1659029074835888400,8.185888427734374,-52.593753814697266,-1.912500023841858,-5.043750286102295
1659029074845888500,8.195888427734374,-52.70625305175781,-1.7062500715255737,-5.025000095367432
1659029074855888400,8.205888427734376,-52.85625076293945,-1.6875001192092896,-4.631250381469727
1659029074865888500,8.215888427734376,-52.70625305175781,-1.537500023841858,-4.612500190734863
1659029074875888400,8.225888427734375,-52.837501525878906,-1.5,-4.556250095367432
1659029074885888500,8.235888427734375,-52.687503814697266,-1.350000023841858,-4.5
1659029074895888400,8.245888427734375,-52.81875228881836,-1.3125,-4.556250095367432
1659029074905888500,8.255888427734375,-52.72500228881836,-1.5750000476837158,-4.650000095367432
1659029074915888400,8.265888427734374,-52.80000305175781,-1.5562500953674316,-4.575000286102295
1659029074925888500,8.275888427734374,-52.85625076293945,-1.8562500476837158,-4.6875
1659029074935888400,8.285888427734376,-52.85625076293945,-1.818750023841858,-4.875
1659029074945888500,8.295888427734376,-52.91250228881836,-2.1000001430511475,-4.893750190734863
1659029074955888400,8.305888427734375,-52.63125228881836,-1.8937500715255737,-4.875
1659029074965888500,8.315888427734375,-52.650001525878906,-2.1000001430511475,-5.100000381469727
1659029074975888400,8.325888427734375,-52.650001525878906,-2.0062501430511475,-5.025000095367432
1659029074985888500,8.335888427734375,-52.66875076293945,-1.9875000715255737,-5.006250381469727
1659029074995888400,8.345888427734375,-52.61250305175781,-2.0812501907348633,-5.025000095367432
1659029075005888500,8.355888427734374,-52.48125076293945,-1.912500023841858,-4.912500381469727
1659029075015888400,8.365888427734374,-52.23750305175781,-2.0062501430511475,-4.818750381469727
1659029075025888500,8.375888427734376,-52.125003814697266,-1.7625000476837158,-4.650000095367432
1659029075035888400,8.385888427734375,-52.35000228881836,-2.0812501907348633,-4.650000095367432
1659029075045888500,8.395888427734375,-52.462501525878906,-1.912500023841858,-4.575000286102295
1659029075055888400,8.405888427734375,-52.462501525878906,-2.1187500953674316,-4.481250286102295
1659029075065888500,8.415888427734375,-52.57500076293945,-2.0250000953674316,-4.350000381469727
1659029075075888400,8.425888427734375,-52.593753814697266,-2.1000001430511475,-4.293750286102295
1659029075085888500,8.435888427734374,-52.687503814697266,-2.0625,-4.387500286102295
1659029075095888400,8.445888427734374,-52.837501525878906,-1.8000000715255737,-4.443750381469727
1659029075105888500,8.455888427734376,-52.98750305175781,-1.9312500953674316,-4.462500095367432
1659029075115888400,8.465888427734376,-52.931251525878906,-1.7437500953674316,-4.40625
1659029075125888500,8.475888427734375,-52.91250228881836,-1.5750000476837158,-4.481250286102295
1659029075135888400,8.485888427734375,-52.89375305175781,-1.6125000715255737,-4.462500095367432
1659029075145888500,8.495888427734375,-52.72500228881836,-1.6125000715255737,-4.481250286102295
1659029075155888400,8.505888427734375,-52.66875076293945,-1.6687500476837158,-4.631250381469727
1659029075165888500,8.515888427734374,-52.42500305175781,-1.6500000953674316,-4.425000190734863
1659029075175888400,8.525888427734374,-52.500003814697266,-1.8750001192092896,-4.59375
1659029075185888500,8.535888427734376,-52.312503814697266,-1.7812501192092896,-4.6875
1659029075195888400,8.545888427734376,-52.33125305175781,-1.725000023841858,-4.575000286102295
1659029075205888500,8.555888427734375,-52.368751525878906,-1.8750001192092896,-4.5
1659029075215888400,8.565888427734375,-52.462501525878906,-1.818750023841858,-4.59375
1659029075225888500,8.575888427734375,-52.57500076293945,-2.0250000953674316,-4.762500286102295
1659029075235888400,8.585888427734375,-52.687503814697266,-1.8750001192092896,-4.78125
1659029075245888500,8.595888427734375,-53.04375076293945,-1.8375000953674316,-4.837500095367432
1659029075255888400,8.605888427734374,-53.062503814697266,-1.725000023841858,-4.78125
1659029075265888500,8.615888427734374,-53.025001525878906,-1.6875001192092896,-4.837500095367432
1659029075275888400,8.625888427734376,-53.025001525878906,-1.8562500476837158,-5.006250381469727
1659029075285888500,8.635888427734375,-53.17500305175781,-1.7812501192092896,-4.987500190734863
1659029075295888400,8.645888427734375,-52.95000076293945,-1.8375000953674316,-5.025000095367432
1659029075305888500,8.655888427734375,-52.968753814697266,-1.5937501192092896,-4.706250190734863
1659029075315888400,8.665888427734375,-52.76250076293945,-1.631250023841858,-4.556250095367432
1659029075325888500,8.675888427734375,-52.35000228881836,-1.6125000715255737,-4.612500190734863
1659029075335888400,8.685888427734374,-52.23750305175781,-1.725000023841858,-4.3125
1659029075345888500,8.695888427734374,-52.29375076293945,-1.9312500953674316,-4.237500190734863
1659029075355888400,8.705888427734376,-52.29375076293945,-1.7062500715255737,-4.068750381469727
1659029075365888500,8.715888427734376,-52.087501525878906,-1.7437500953674316,-3.9000000953674316
1659029075375888400,8.725888427734375,-52.218753814697266,-1.8000000715255737,-3.8812501430511475
1659029075385888500,8.735888427734375,-52.10625076293945,-1.7625000476837158,-4.03125
1659029075395888400,8.745888427734375,-52.06875228881836,-1.631250023841858,-4.050000190734863
1659029075405888500,8.755888427734375,-52.368751525878906,-1.4812500476837158,-3.9562501907348633
1659029075415888400,8.765888427734374,-52.593753814697266,-1.3312500715255737,-4.050000190734863
1659029075425888500,8.775888427734374,-52.76250076293945,-1.21875,-4.068750381469727
1659029075435888400,8.785888427734376,-52.61250305175781,-1.256250023841858,-4.275000095367432
1659029075445888500,8.795888427734376,-52.72500228881836,-1.21875,-4.387500286102295
1659029075455888400,8.805888427734375,-52.63125228881836,-1.21875,-4.387500286102295
1659029075465888500,8.815888427734375,-52.76250076293945,-1.2750000953674316,-4.462500095367432
1659029075475888400,8.825888427734375,-52.875003814697266,-1.3312500715255737,-4.537500381469727
1659029075485888500,8.835888427734375,-52.72500228881836,-1.3687500953674316,-4.59375
1659029075495888400,8.845888427734375,-52.57500076293945,-1.350000023841858,-4.462500095367432
1659029075505888500,8.855888427734374,-52.462501525878906,-1.256250023841858,-4.200000286102295
1659029075515888400,8.865888427734374,-52.51875305175781,-1.2375000715255737,-3.9562501907348633
1659029075525888500,8.875888427734376,-52.35000228881836,-1.2937500476837158,-3.825000047683716
1659029075535888400,8.885888427734375,-52.556251525878906,-1.256250023841858,-3.750000238418579
1659029075545888500,8.895888427734375,-52.650001525878906,-1.256250023841858,-3.6750001907348633
1659029075555888400,8.905888427734375,-52.63125228881836,-1.2375000715255737,-3.6937501430511475
1659029075565888500,8.915888427734375,-52.89375305175781,-1.125,-3.543750047683716
1659029075575888400,8.925888427734375,-52.95000076293945,-1.1062500476837158,-3.5250000953674316
1659029075585888500,8.935888427734374,-52.81875228881836,-1.1437500715255737,-3.7687501907348633
1659029075595888400,8.945888427734374,-52.76250076293945,-1.1812500953674316,-3.8062500953674316
1659029075605888500,8.955888427734376,-52.80000305175781,-1.0125000476837158,-3.7125000953674316
1659029075615888400,8.965888427734376,-52.63125228881836,-0.8812500238418579,-3.9000000953674316
1659029075625888500,8.975888427734375,-52.593753814697266,-0.7875000238418579,-3.9562501907348633
1659029075635888400,8.985888427734375,-52.44375228881836,-0.6000000238418579,-3.637500047683716
1659029075645888500,8.995888427734375,-52.33125305175781,-0.5625,-3.7125000953674316
1659029075655888400,9.005888427734375,-52.33125305175781,-0.6000000238418579,-3.7687501907348633
1659029075665888500,9.015888427734374,-52.462501525878906,-0.4312500059604645,-3.6937501430511475
1659029075675888400,9.025888427734374,-52.556251525878906,-0.5625,-3.6187500953674316
1659029075685888500,9.035888427734376,-52.406253814697266,-0.8812500238418579,-3.7687501907348633
1659029075695888400,9.045888427734376,-52.275001525878906,-0.7875000238418579,-3.543750047683716
1659029075705888500,9.055888427734375,-52.14375305175781,-0.75,-3.3937501907348633
1659029075715888400,9.065888427734375,-52.25625228881836,-0.9187500476837158,-3.450000047683716
1659029075725888500,9.075888427734375,-52.29375076293945,-0.956250011920929,-3.3187501430511475
1659029075735888400,9.085888427734375,-52.181251525878906,-1.068750023841858,-3.2437500953674316
1659029075745888500,9.095888427734375,-52.125003814697266,-1.068750023841858,-3.3000001907348633
1659029075755888400,9.105888427734374,-52.14375305175781,-0.8812500238418579,-3.3937501907348633
1659029075765888500,9.115888427734374,-52.23750305175781,-0.6000000238418579,-3.2062501907348633
1659029075775888400,9.125888427734376,-52.44375228881836,-0.8250000476837158,-3.2062501907348633
1659029075785888500,9.135888427734375,-52.53750228881836,-0.6000000238418579,-3.1500000953674316
1659029075795888400,9.145888427734375,-52.61250305175781,-0.5250000357627869,-3.2250001430511475
1659029075805888500,9.155888427734375,-52.462501525878906,-0.5625,-3.1125001907348633
1659029075815888400,9.165888427734375,-52.42500305175781,-0.20625001192092896,-3.093750238418579
1659029075825888500,9.175888427734375,-52.23750305175781,-0.13125000894069672,-2.6812500953674316
1659029075835888400,9.185888427734374,-52.23750305175781,-0.13125000894069672,-2.71875
1659029075845888500,9.195888427734374,-52.218753814697266,-0.09375,-2.5500001907348633
1659029075855888400,9.205888427734376,-52.218753814697266,0.09375,-2.4562501907348633
1659029075865888500,9.215888427734376,-52.16250228881836,-0.11250000447034836,-2.325000047683716
1659029075875888400,9.225888427734375,-52.10625076293945,-0.07500000298023224,-2.1187500953674316
1659029075885888500,9.235888427734375,-52.14375305175781,0.16875000298023224,-2.043750047683716
1659029075895888400,9.245888427734375,-52.16250228881836,-0.03750000149011612,-2.043750047683716
1659029075905888500,9.255888427734375,-52.35000228881836,-0.05625000223517418,-2.0812501907348633
1659029075915888400,9.265888427734374,-52.25625228881836,0,-2.043750047683716
1659029075925888500,9.275888427734374,-52.25625228881836,0.03750000149011612,-2.2875001430511475
1659029075935888400,9.285888427734376,-52.031253814697266,0.16875000298023224,-2.4000000953674316
1659029075945888500,9.295888427734376,-51.91875076293945,0.01875000074505806,-2.53125
1659029075955888400,9.305888427734375,-52.01250076293945,0.03750000149011612,-2.5500001907348633
1659029075965888500,9.315888427734375,-51.91875076293945,-0.20625001192092896,-2.6625001430511475
1659029075975888400,9.325888427734375,-52.125003814697266,-0.09375,-2.5500001907348633
1659029075985888500,9.335888427734375,-52.125003814697266,-0.05625000223517418,-2.7375001907348633
1659029075995888400,9.345888427734375,-52.218753814697266,0.20625001192092896,-2.4937500953674316
1659029076005888500,9.355888427734374,-52.20000076293945,0.24375000596046448,-2.2125000953674316
1659029076015888400,9.365888427734374,-52.29375076293945,0.16875000298023224,-1.9500000476837158
1659029076025888500,9.375888427734376,-52.25625228881836,0.26250001788139343,-1.6875001192092896
1659029076035888400,9.385888427734375,-51.95625305175781,0.35625001788139343,-1.6500000953674316
1659029076045888500,9.395888427734375,-52.05000305175781,0.4687500298023224,-1.3312500715255737
1659029076055888400,9.405888427734375,-51.91875076293945,0.39375001192092896,-1.2937500476837158
1659029076065888500,9.415888427734375,-51.806251525878906,0.39375001192092896,-1.162500023841858
1659029076075888400,9.425888427734375,-51.656253814697266,0.20625001192092896,-1.162500023841858
1659029076085888500,9.435888427734374,-51.60000228881836,0.45000001788139343,-1.0875000953674316
1659029076095888400,9.445888427734374,-51.562503814697266,0.7312500476837158,-0.9750000238418579
1659029076105888500,9.455888427734376,-51.41250228881836,0.7312500476837158,-0.956250011920929
1659029076115888400,9.465888427734376,-51.48750305175781,0.9375000596046448,-0.7875000238418579
1659029076125888500,9.475888427734375,-51.54375076293945,0.9375000596046448,-0.9187500476837158
1659029076135888400,9.485888427734375,-51.337501525878906,1.068750023841858,-0.9187500476837158
1659029076145888500,9.495888427734375,-50.98125076293945,1.1062500476837158,-0.6187500357627869
1659029076155888400,9.505888427734375,-50.812503814697266,1.1812500953674316,-0.45000001788139343
1659029076165888500,9.515888427734374,-50.73750305175781,1.2000000476837158,-0.1875
1659029076175888400,9.525888427734374,-50.70000076293945,1.3312500715255737,-0.05625000223517418
1659029076185888500,9.535888427734376,-50.55000305175781,1.5937501192092896,0.09375
1659029076195888400,9.545888427734376,-50.587501525878906,1.443750023841858,0.01875000074505806
1659029076205888500,9.555888427734375,-50.437503814697266,1.6125000715255737,0.30000001192092896
1659029076215888400,9.565888427734375,-50.47500228881836,1.8937500715255737,0.581250011920929
1659029076225888500,9.575888427734375,-50.681251525878906,2.0250000953674316,0.5437500476837158
1659029076235888400,9.585888427734375,-50.775001525878906,2.15625,0.581250011920929
1659029076245888500,9.595888427734375,-50.56875228881836,1.912500023841858,0.45000001788139343
1659029076255888400,9.605888427734374,-50.47500228881836,1.818750023841858,0.45000001788139343
1659029076265888500,9.615888427734374,-50.64375305175781,1.7625000476837158,0.5250000357627869
1659029076275888400,9.625888427734376,-50.47500228881836,1.7625000476837158,0.675000011920929
1659029076285888500,9.635888427734375,-50.28750228881836,1.8000000715255737,0.768750011920929
1659029076295888400,9.645888427734375,-50.19375228881836,1.6125000715255737,0.675000011920929
1659029076305888500,9.655888427734375,-50.17500305175781,1.5187500715255737,0.9187500476837158
1659029076315888400,9.665888427734375,-50.23125076293945,1.4812500476837158,1.0500000715255737
1659029076325888500,9.675888427734375,-50.45625305175781,1.5562500953674316,1.0500000715255737
1659029076335888400,9.685888427734374,-50.343753814697266,1.3125,1.3312500715255737
1659029076345888500,9.695888427734374,-50.28750228881836,1.3125,1.3875000476837158
1659029076355888400,9.705888427734376,-50.55000305175781,1.2937500476837158,1.443750023841858
1659029076365888500,9.715888427734376,-50.587501525878906,1.1812500953674316,1.6500000953674316
1659029076375888400,9.725888427734375,-50.66250228881836,1.3125,1.9875000715255737
1659029076385888500,9.735888427734375,-50.587501525878906,1.6875001192092896,2.2687501907348633
1659029076395888400,9.745888427734375,-50.531253814697266,1.6875001192092896,2.418750047683716
1659029076405888500,9.755888427734375,-50.41875076293945,1.7625000476837158,2.6625001430511475
1659029076415888400,9.765888427734374,-50.28750228881836,1.7062500715255737,2.4937500953674316
1659029076425888500,9.775888427734374,-50.32500076293945,1.7062500715255737,2.793750047683716
1659029076435888400,9.785888427734376,-50.212501525878906,1.818750023841858,3.3375000953674316
1659029076445888500,9.795888427734376,-50.19375228881836,1.8937500715255737,3.4125001430511475
1659029076455888400,9.805888427734375,-50.17500305175781,1.818750023841858,3.281250238418579
1659029076465888500,9.815888427734375,-50.28750228881836,1.6125000715255737,2.90625
1659029076475888400,9.825888427734375,-50.28750228881836,1.6125000715255737,2.90625
1659029076485888500,9.835888427734375,-50.156253814697266,1.725000023841858,2.9625000953674316
1659029076495888400,9.845888427734375,-50.400001525878906,2.1187500953674316,3.075000047683716
1659029076505888500,9.855888427734374,-50.66250228881836,2.3062500953674316,2.981250047683716
1659029076515888400,9.865888427734374,-50.437503814697266,2.2875001430511475,2.4000000953674316
1659029076525888500,9.875888427734376,-50.47500228881836,2.418750047683716,2.4000000953674316
1659029076535888400,9.885888427734375,-50.45625305175781,2.4750001430511475,2.53125
1659029076545888500,9.895888427734375,-50.28750228881836,2.5500001907348633,2.700000047683716
1659029076555888400,9.905888427734375,-50.343753814697266,2.5687501430511475,2.71875
1659029076565888500,9.915888427734375,-50.681251525878906,2.512500047683716,2.512500047683716
1659029076575888400,9.925888427734375,-50.343753814697266,2.2687501907348633,2.625
1659029076585888500,9.935888427734374,-49.968753814697266,2.2687501907348633,2.4750001430511475
1659029076595888400,9.945888427734374,-50.08125305175781,2.325000047683716,2.7750000953674316
1659029076605888500,9.955888427734376,-49.85625076293945,2.2125000953674316,2.5875000953674316
1659029076615888400,9.965888427734376,-49.556251525878906,1.9312500953674316,2.4937500953674316
1659029076625888500,9.975888427734375,-49.85625076293945,1.7625000476837158,2.34375
1659029076635888400,9.985888427734375,-49.687503814697266,1.7062500715255737,2.137500047683716
1659029076645888500,9.995888427734375,-49.368751525878906,1.6500000953674316,2.25
1659029076655888400,10.005888427734375,-49.70625305175781,1.5937501192092896,2.1187500953674316
1659029076665888500,10.015888427734374,-49.76250076293945,1.4812500476837158,2.25
1659029076675888400,10.025888427734374,-49.70625305175781,1.5,2.3625001907348633
1659029076685888500,10.035888427734376,-49.95000076293945,1.5187500715255737,2.325000047683716
1659029076695888400,10.045888427734376,-50.13750076293945,1.8750001192092896,2.2687501907348633
1659029076705888500,10.055888427734375,-50.00625228881836,1.9500000476837158,2.3625001907348633
1659029076715888400,10.065888427734375,-50.04375076293945,2.1750001907348633,2.4562501907348633
1659029076725888500,10.075888427734375,-50.17500305175781,2.4000000953674316,2.4000000953674316
1659029076735888400,10.085888427734375,-50.13750076293945,2.3062500953674316,2.4000000953674316
1659029076745888500,10.095888427734375,-50.025001525878906,2.325000047683716,2.4562501907348633
1659029076755888400,10.105888427734374,-50.212501525878906,2.15625,2.2875001430511475
1659029076765888500,10.115888427734374,-50.306251525878906,1.9312500953674316,2.34375
1659029076775888400,10.125888427734376,-50.343753814697266,1.9312500953674316,2.4937500953674316
1659029076785888500,10.135888427734375,-50.400001525878906,1.9312500953674316,2.5500001907348633
1659029076795888400,10.145888427734375,-50.41875076293945,1.725000023841858,2.7562501430511475
