time,seconds_elapsed,z,y,x
1659029066725890000,0.07589013671875,-175.27500915527344,-55.01250076293945,27.168750762939453
1659029066735890200,0.08589013671875,-175.20001220703125,-54.58125305175781,27.337501525878906
1659029066745890000,0.09589013671875,-175.16250610351562,-54.07500076293945,27.656251907348633
1659029066755890200,0.10589013671875,-175.4250030517578,-54.375003814697266,27.48750114440918
1659029066765890000,0.11589013671875,-175.25625610351562,-54.26250076293945,27.637500762939453
1659029066775890200,0.12589013671875,-175.29376220703125,-54.31875228881836,27.412500381469727
1659029066785890000,0.13589013671875,-175.20001220703125,-54.30000305175781,27.356250762939453
1659029066795890200,0.14589013671875,-175.0500030517578,-54.26250076293945,27.243751525878906
1659029066805890000,0.15589013671875,-175.2375030517578,-54.337501525878906,27.318750381469727
1659029066815890200,0.16589013671875,-175.40625,-54.375003814697266,27.150001525878906
1659029066825890000,0.17589013671875,-175.8000030517578,-54.97500228881836,27.037500381469727
1659029066835890200,0.18589013671875,-175.4250030517578,-54.843753814697266,26.92500114440918
1659029066845890000,0.19589013671875,-175.83750915527344,-55.218753814697266,26.906251907348633
1659029066855890200,0.20589013671875,-175.95001220703125,-55.16250228881836,26.793750762939453
1659029066865890000,0.21589013671875,-176.11875915527344,-55.20000076293945,26.587501525878906
1659029066875890200,0.22589013671875,-176.2687530517578,-55.53750228881836,26.700000762939453
1659029066885890000,0.23589013671875,-175.91250610351562,-55.14375305175781,26.531251907348633
1659029066895890200,0.24589013671875,-176.00625610351562,-55.53750228881836,26.83125114440918
1659029066905890000,0.25589013671875,-175.48126220703125,-55.14375305175781,26.700000762939453
1659029066915890200,0.26589013671875,-175.85626220703125,-55.500003814697266,27.243751525878906
1659029066925890000,0.27589013671875,-175.6125030517578,-55.23750305175781,27.187501907348633
1659029066935890200,0.28589013671875,-175.8937530517578,-55.38750076293945,27.506250381469727
1659029066945890000,0.29589013671875,-175.57501220703125,-55.38750076293945,27.787500381469727
1659029066955890200,0.30589013671875,-175.57501220703125,-55.20000076293945,27.750001907348633
1659029066965890000,0.31589013671875,-175.5,-55.70625305175781,27.787500381469727
1659029066975890200,0.32589013671875,-175.27500915527344,-55.51875305175781,27.918750762939453
1659029066985890000,0.33589013671875,-175.55625915527344,-55.500003814697266,28.087501525878906
1659029066995890200,0.34589013671875,-175.48126220703125,-55.181251525878906,27.825000762939453
1659029067005890000,0.35589013671875,-175.3312530517578,-54.993751525878906,27.86250114440918
1659029067015890200,0.36589013671875,-175.29376220703125,-55.181251525878906,28.200000762939453
1659029067025890000,0.37589013671875,-175.36875915527344,-55.14375305175781,28.256250381469727
1659029067035890200,0.38589013671875,-175.2375030517578,-54.993751525878906,28.42500114440918
1659029067045890000,0.39589013671875,-175.65000915527344,-54.88125228881836,28.293750762939453
1659029067055890200,0.40589013671875,-175.7062530517578,-54.69375228881836,28.106250762939453
1659029067065890000,0.41589013671875,-175.66876220703125,-55.10625076293945,28.012500762939453
1659029067075890200,0.42589013671875,-175.66876220703125,-55.16250228881836,27.843751907348633
1659029067085890000,0.43589013671875,-175.76251220703125,-55.61250305175781,27.637500762939453
1659029067095890200,0.44589013671875,-175.35000610351562,-55.33125305175781,27.262500762939453
1659029067105890000,0.45589013671875,-175.7062530517578,-55.687503814697266,26.850000381469727
1659029067115890200,0.46589013671875,-175.81875610351562,-55.80000305175781,26.756250381469727
1659029067125890000,0.47589013671875,-175.5187530517578,-55.72500228881836,26.850000381469727
1659029067135890200,0.48589013671875,-175.40625,-55.593753814697266,26.83125114440918
1659029067145890000,0.49589013671875,-175.35000610351562,-55.087501525878906,26.700000762939453
1659029067155890200,0.50589013671875,-175.06875610351562,-55.05000305175781,26.812501907348633
1659029067165890000,0.51589013671875,-175.0500030517578,-54.69375228881836,26.962501525878906
1659029067175890200,0.52589013671875,-175.10626220703125,-54.78750228881836,26.981250762939453
1659029067185890000,0.53589013671875,-174.80625915527344,-54.54375076293945,27.337501525878906
1659029067195890200,0.54589013671875,-174.88125610351562,-54.31875228881836,27.337501525878906
1659029067205890000,0.55589013671875,-174.7687530517578,-54.11250305175781,27.450000762939453
1659029067215890200,0.56589013671875,-174.69375610351562,-54.281253814697266,27.525001525878906
1659029067225890000,0.57589013671875,-174.63751220703125,-54.07500076293945,27.76875114440918
1659029067235890200,0.58589013671875,-175.18125915527344,-54.54375076293945,27.76875114440918
1659029067245890000,0.59589013671875,-175.21875,-54.656253814697266,27.787500381469727
1659029067255890200,0.60589013671875,-175.40625,-55.031253814697266,27.750001907348633
1659029067265890000,0.61589013671875,-175.6125030517578,-54.97500228881836,27.600000381469727
1659029067275890200,0.62589013671875,-175.7062530517578,-55.275001525878906,27.750001907348633
1659029067285890000,0.63589013671875,-175.76251220703125,-55.29375076293945,27.806251525878906
1659029067295890200,0.64589013671875,-175.8937530517578,-55.20000076293945,27.637500762939453
1659029067305890000,0.65589013671875,-175.93125915527344,-55.57500076293945,27.562501907348633
1659029067315890200,0.66589013671875,-175.38751220703125,-55.01250076293945,27.67500114440918
1659029067325890000,0.67589013671875,-175.0500030517578,-54.97500228881836,27.76875114440918
1659029067335890200,0.68589013671875,-174.6750030517578,-54.375003814697266,27.731250762939453
1659029067345890000,0.69589013671875,-174.375,-54.45000076293945,27.712501525878906
1659029067355890200,0.70589013671875,-174.05625915527344,-54.13125228881836,27.48750114440918
1659029067365890000,0.71589013671875,-174.1125030517578,-54.30000305175781,27.281251907348633
1659029067375890200,0.72589013671875,-174.15000915527344,-54.41250228881836,27.262500762939453
1659029067385890000,0.73589013671875,-174.15000915527344,-54.45000076293945,27.30000114440918
1659029067395890200,0.74589013671875,-174.52500915527344,-54.50625228881836,27.075000762939453
1659029067405890000,0.75589013671875,-175.0500030517578,-54.806251525878906,27.262500762939453
1659029067415890200,0.76589013671875,-175.20001220703125,-54.843753814697266,27.262500762939453
1659029067425890000,0.77589013671875,-175.6125030517578,-55.181251525878906,27.39375114440918
1659029067435890200,0.78589013671875,-175.6875,-55.275001525878906,27.412500381469727
1659029067445890000,0.79589013671875,-176.30625915527344,-55.70625305175781,27.543750762939453
1659029067455890200,0.80589013671875,-176.15625,-55.61250305175781,27.562501907348633
1659029067465890000,0.81589013671875,-176.2687530517578,-55.61250305175781,27.468751907348633
1659029067475890200,0.82589013671875,-176.11875915527344,-55.53750228881836,27.637500762939453
1659029067485890000,0.83589013671875,-175.83750915527344,-55.51875305175781,27.150001525878906
1659029067495890200,0.84589013671875,-175.875,-55.51875305175781,27.20625114440918
1659029067505890000,0.85589013671875,-175.5187530517578,-55.20000076293945,27.075000762939453
1659029067515890200,0.86589013671875,-175.5,-55.087501525878906,27.11250114440918
1659029067525890000,0.87589013671875,-175.0500030517578,-54.69375228881836,27.150001525878906
1659029067535890200,0.88589013671875,-175.08750915527344,-54.50625228881836,27.431251525878906
1659029067545890000,0.89589013671875,-175.01251220703125,-54.35625076293945,27.506250381469727
1659029067555890200,0.90589013671875,-175.03125,-54.281253814697266,27.76875114440918
1659029067565890000,0.91589013671875,-174.78750610351562,-53.75625228881836,27.900001525878906
1659029067575890200,0.92589013671875,-174.3937530517578,-54.000003814697266,28.031251907348633
1659029067585890000,0.93589013671875,-174.33750915527344,-53.812503814697266,28.23750114440918
1659029067595890200,0.94589013671875,-174.35626220703125,-53.868751525878906,28.33125114440918
1659029067605890000,0.95589013671875,-174.33750915527344,-53.66250228881836,28.593751907348633
1659029067615890200,0.96589013671875,-174.09375,-53.775001525878906,28.631250381469727
1659029067625890000,0.97589013671875,-173.60626220703125,-53.531253814697266,28.556251525878906
1659029067635890200,0.98589013671875,-173.6437530517578,-53.64375305175781,28.256250381469727
1659029067645890000,0.99589013671875,-173.86875915527344,-53.681251525878906,28.500001907348633
1659029067655890200,1.00589013671875,-174.41250610351562,-53.868751525878906,28.556251525878906
1659029067665890000,1.01589013671875,-174.5625,-53.906253814697266,28.631250381469727
1659029067675890200,1.02589013671875,-174.75,-54.41250228881836,28.743751525878906
1659029067685890000,1.03589013671875,-174.60000610351562,-54.431251525878906,28.687501907348633
1659029067695890200,1.04589013671875,-174.84375,-54.88125228881836,28.556251525878906
1659029067705890000,1.05589013671875,-175.3125,-55.14375305175781,28.950000762939453
1659029067715890200,1.06589013671875,-175.38751220703125,-55.16250228881836,29.381250381469727
1659029067725890000,1.07589013671875,-175.40625,-55.181251525878906,29.343751907348633
1659029067735888400,1.085888427734375,-175.18125915527344,-54.73125076293945,29.531251907348633
1659029067745888500,1.095888427734375,-175.01251220703125,-54.58125305175781,29.55000114440918
1659029067755888400,1.105888427734375,-174.82501220703125,-54.11250305175781,29.437501907348633
1659029067765888500,1.115888427734375,-174.97500610351562,-54.056251525878906,29.306251525878906
1659029067775888400,1.125888427734375,-175.08750915527344,-53.60625076293945,29.36250114440918
1659029067785888500,1.135888427734375,-175.06875610351562,-53.531253814697266,29.343751907348633
1659029067795888400,1.145888427734375,-174.90000915527344,-53.47500228881836,29.025001525878906
1659029067805888500,1.155888427734375,-174.9375,-53.306251525878906,29.17500114440918
1659029067815888400,1.165888427734375,-174.9562530517578,-53.32500076293945,29.062501907348633
1659029067825888500,1.175888427734375,-175.125,-53.38125228881836,29.306251525878906
1659029067835888400,1.185888427734375,-175.10626220703125,-53.306251525878906,29.55000114440918
1659029067845888500,1.195888427734375,-174.99375915527344,-53.26875305175781,30.11250114440918
1659029067855888400,1.205888427734375,-174.8625030517578,-53.212501525878906,30.506250381469727
1659029067865888500,1.215888427734375,-174.7687530517578,-53.17500305175781,30.693750381469727
1659029067875888400,1.225888427734375,-174.6750030517578,-53.10000228881836,31.012500762939453
1659029067885888500,1.235888427734375,-174.61875915527344,-53.250003814697266,31.23750114440918
1659029067895888400,1.245888427734375,-174.63751220703125,-53.250003814697266,31.443750381469727
1659029067905888500,1.255888427734375,-174.4875030517578,-53.32500076293945,31.725000381469727
1659029067915888400,1.265888427734375,-174.4875030517578,-53.36250305175781,31.98750114440918
1659029067925888500,1.275888427734375,-174.43125915527344,-53.36250305175781,32.08125305175781
1659029067935888400,1.285888427734375,-174.24375915527344,-53.493751525878906,32.17500305175781
1659029067945888500,1.295888427734375,-174.1875,-53.587501525878906,32.08125305175781
1659029067955888400,1.305888427734375,-174.26251220703125,-53.64375305175781,32.400001525878906
1659029067965888500,1.315888427734375,-174.22500610351562,-53.66250228881836,32.56875228881836
1659029067975888400,1.325888427734375,-174.24375915527344,-53.962501525878906,32.85000228881836
1659029067985888500,1.335888427734375,-174.31875610351562,-54.150001525878906,32.79375076293945
1659029067995888400,1.345888427734375,-174.16876220703125,-54.07500076293945,32.94375228881836
1659029068005888500,1.355888427734375,-174.09375,-54.375003814697266,32.71875
1659029068015888400,1.365888427734375,-174.1125030517578,-54.337501525878906,32.88750076293945
1659029068025888500,1.375888427734375,-174.375,-54.22500228881836,33.1875
1659029068035888400,1.385888427734375,-174.28125,-54.11250305175781,33.22500228881836
1659029068045888500,1.395888427734375,-174.33750915527344,-54.11250305175781,33.22500228881836
1659029068055888400,1.405888427734375,-174.31875610351562,-53.73750305175781,33.1875
1659029068065888500,1.415888427734375,-174.375,-53.47500228881836,33.31875228881836
1659029068075888400,1.425888427734375,-174.69375610351562,-53.531253814697266,33.16875076293945
1659029068085888500,1.435888427734375,-174.82501220703125,-53.493751525878906,33.41250228881836
1659029068095888400,1.445888427734375,-175.01251220703125,-53.681251525878906,33.375
1659029068105888500,1.455888427734375,-174.90000915527344,-53.681251525878906,33.41250228881836
1659029068115888400,1.465888427734375,-174.9562530517578,-53.868751525878906,33.46875
1659029068125888500,1.475888427734375,-174.88125610351562,-53.906253814697266,33.58125305175781
1659029068135888400,1.485888427734375,-174.61875915527344,-54.056251525878906,33.78750228881836
1659029068145888500,1.495888427734375,-174.61875915527344,-54.41250228881836,33.84375
1659029068155888400,1.505888427734375,-174.5625,-54.618751525878906,33.91875076293945
1659029068165888500,1.515888427734375,-174.71250915527344,-54.54375076293945,33.993751525878906
1659029068175888400,1.525888427734375,-174.73126220703125,-54.468753814697266,33.91875076293945
1659029068185888500,1.535888427734375,-174.88125610351562,-54.58125305175781,34.10625076293945
1659029068195888400,1.545888427734375,-174.8625030517578,-54.73125076293945,34.06875228881836
1659029068205888500,1.555888427734375,-174.91876220703125,-54.95625305175781,34.01250076293945
1659029068215888400,1.565888427734375,-175.27500915527344,-54.95625305175781,33.95625305175781
1659029068225888500,1.575888427734375,-175.25625610351562,-54.88125228881836,33.88125228881836
1659029068235888400,1.585888427734375,-175.10626220703125,-54.95625305175781,34.181251525878906
1659029068245888500,1.595888427734375,-174.78750610351562,-54.97500228881836,34.38750076293945
1659029068255888400,1.605888427734375,-174.5812530517578,-55.10625076293945,34.53750228881836
1659029068265888500,1.615888427734375,-174.28125,-55.218753814697266,34.743751525878906
1659029068275888400,1.625888427734375,-174.1875,-55.25625228881836,35.025001525878906
1659029068285888500,1.635888427734375,-174.03750610351562,-55.35000228881836,35.25
1659029068295888400,1.645888427734375,-173.9250030517578,-55.687503814697266,35.36250305175781
1659029068305888500,1.655888427734375,-173.9250030517578,-55.95000076293945,35.70000076293945
1659029068315888400,1.665888427734375,-173.90625,-56.10000228881836,35.75625228881836
1659029068325888500,1.675888427734375,-174.13125610351562,-56.47500228881836,35.868751525878906
1659029068335888400,1.685888427734375,-174.2062530517578,-56.70000076293945,35.98125076293945
1659029068345888500,1.695888427734375,-174.16876220703125,-56.83125305175781,36.03750228881836
1659029068355888400,1.705888427734375,-174.375,-57.056251525878906,36.01875305175781
1659029068365888500,1.715888427734375,-174.41250610351562,-57.150001525878906,36.03750228881836
1659029068375888400,1.725888427734375,-174.26251220703125,-57.16875076293945,36.03750228881836
1659029068385888500,1.735888427734375,-174.15000915527344,-57.22500228881836,35.98125076293945
1659029068395888400,1.745888427734375,-174.09375,-57.431251525878906,36.09375
1659029068405888500,1.755888427734375,-174.05625915527344,-57.60000228881836,36.056251525878906
1659029068415888400,1.765888427734375,-174.05625915527344,-57.73125076293945,36.09375
1659029068425888500,1.775888427734375,-174.1875,-58.06875228881836,36
1659029068435888400,1.785888427734375,-173.98126220703125,-57.88125228881836,35.962501525878906
1659029068445888500,1.795888427734375,-173.90625,-58.20000076293945,36.07500076293945
1659029068455888400,1.805888427734375,-173.56875610351562,-58.42500305175781,36.20625305175781
1659029068465888500,1.815888427734375,-173.625,-58.593753814697266,35.98125076293945
1659029068475888400,1.825888427734375,-173.60626220703125,-58.66875076293945,35.73750305175781
1659029068485888500,1.835888427734375,-173.49375915527344,-58.76250076293945,35.625
1659029068495888400,1.845888427734375,-173.15625,-58.72500228881836,35.64375305175781
1659029068505888500,1.855888427734375,-173.10000610351562,-58.76250076293945,35.64375305175781
1659029068515888400,1.865888427734375,-173.04376220703125,-59.26875305175781,35.45625305175781
1659029068525888500,1.875888427734375,-172.95001220703125,-59.36250305175781,35.306251525878906
1659029068535888400,1.885888427734375,-173.25,-59.306251525878906,34.89375305175781
1659029068545888500,1.895888427734375,-173.13751220703125,-59.32500076293945,35.00625228881836
1659029068555888400,1.905888427734375,-173.0812530517578,-59.212501525878906,35.00625228881836
1659029068565888500,1.915888427734375,-172.875,-59.10000228881836,34.931251525878906
1659029068575888400,1.925888427734375,-173.10000610351562,-59.13750076293945,34.70625305175781
1659029068585888500,1.935888427734375,-173.04376220703125,-58.931251525878906,34.35000228881836
1659029068595888400,1.945888427734375,-173.0625,-58.875003814697266,34.368751525878906
1659029068605888500,1.955888427734375,-173.0625,-58.89375305175781,33.97500228881836
1659029068615888400,1.965888427734375,-173.02500915527344,-59.04375076293945,34.181251525878906
1659029068625888500,1.975888427734375,-172.95001220703125,-58.91250228881836,33.97500228881836
1659029068635888400,1.985888427734375,-172.72500610351562,-59.118751525878906,33.97500228881836
1659029068645888500,1.995888427734375,-172.85626220703125,-59.17500305175781,33.84375
1659029068655888400,2.005888427734375,-172.81875610351562,-59.23125076293945,33.65625
1659029068665888500,2.015888427734375,-172.72500610351562,-59.55000305175781,33.712501525878906
1659029068675888400,2.025888427734375,-172.63125610351562,-59.51250076293945,33.431251525878906
1659029068685888500,2.035888427734375,-172.72500610351562,-59.400001525878906,33.50625228881836
1659029068695888400,2.045888427734375,-172.44375610351562,-59.23125076293945,33.337501525878906
1659029068705888500,2.055888427734375,-172.5,-59.19375228881836,33.431251525878906
1659029068715888400,2.065888427734375,-172.59375,-59.04375076293945,33.525001525878906
1659029068725888500,2.075888427734375,-172.53750610351562,-59.04375076293945,33.337501525878906
1659029068735888400,2.085888427734375,-172.25625610351562,-58.875003814697266,33.46875
1659029068745888500,2.095888427734375,-172.125,-58.743751525878906,33.35625076293945
1659029068755888400,2.105888427734375,-171.91876220703125,-58.61250305175781,33.35625076293945
1659029068765888500,2.115888427734375,-171.71250915527344,-58.556251525878906,33.41250228881836
1659029068775888400,2.125888427734375,-171.60000610351562,-58.48125076293945,33.54375076293945
1659029068785888500,2.135888427734375,-171.2062530517578,-58.42500305175781,33.35625076293945
1659029068795888400,2.145888427734375,-171.28125,-58.33125305175781,33.056251525878906
1659029068805888500,2.155888427734375,-171.1125030517578,-58.368751525878906,33.243751525878906
1659029068815888400,2.165888427734375,-171.26251220703125,-58.23750305175781,33.03750228881836
1659029068825888500,2.175888427734375,-171.13125610351562,-58.10625076293945,32.83125305175781
1659029068835888400,2.185888427734375,-171.46875,-58.125003814697266,32.94375228881836
1659029068845888500,2.195888427734375,-171.3937530517578,-57.900001525878906,33.09375
1659029068855888400,2.205888427734375,-171.5812530517578,-57.88125228881836,32.94375228881836
1659029068865888500,2.215888427734375,-171.69375610351562,-57.88125228881836,33.09375
1659029068875888400,2.225888427734375,-171.46875,-57.76875305175781,33.243751525878906
1659029068885888500,2.235888427734375,-171.375,-57.562503814697266,33.26250076293945
1659029068895888400,2.245888427734375,-171.3000030517578,-57.712501525878906,33.35625076293945
1659029068905888500,2.255888427734375,-171.31875610351562,-57.76875305175781,33.806251525878906
1659029068915888400,2.265888427734375,-171.13125610351562,-57.60000228881836,33.78750228881836
1659029068925888500,2.275888427734375,-171.16876220703125,-57.48750305175781,33.58125305175781
1659029068935888400,2.285888427734375,-171.07501220703125,-57.375003814697266,33.50625228881836
1659029068945888500,2.295888427734375,-171.22500610351562,-57.35625076293945,33.48750305175781
1659029068955888400,2.305888427734375,-171.24375915527344,-57.337501525878906,33.375
1659029068965888500,2.315888427734375,-171.22500610351562,-57.31875228881836,33.39375305175781
1659029068975888400,2.325888427734375,-171.26251220703125,-57.22500228881836,33.73125076293945
1659029068985888500,2.335888427734375,-171.28125,-56.94375228881836,33.431251525878906
1659029068995888400,2.345888427734375,-171,-56.906253814697266,33.63750076293945
1659029069005888500,2.355888427734375,-171,-57.03750228881836,33.88125228881836
1659029069015888400,2.365888427734375,-171,-57.11250305175781,34.181251525878906
1659029069025888500,2.375888427734375,-171,-57.056251525878906,34.23750305175781
1659029069035888400,2.385888427734375,-170.86875915527344,-57.150001525878906,34.10625076293945
1659029069045888500,2.395888427734375,-171.09375,-57.07500076293945,33.91875076293945
1659029069055888400,2.405888427734375,-170.88751220703125,-57.187503814697266,33.88125228881836
1659029069065888500,2.415888427734375,-170.85000610351562,-57.35625076293945,34.3125
1659029069075888400,2.425888427734375,-171,-57.431251525878906,34.462501525878906
1659029069085888500,2.435888427734375,-171.0187530517578,-57.58125305175781,34.5
1659029069095888400,2.445888427734375,-171,-57.63750076293945,34.61250305175781
1659029069105888500,2.455888427734375,-170.90625,-57.73125076293945,34.6875
1659029069115888400,2.465888427734375,-171.07501220703125,-57.656253814697266,34.85625076293945
1659029069125888500,2.475888427734375,-171.13125610351562,-57.58125305175781,35.10000228881836
1659029069135888400,2.485888427734375,-171.22500610351562,-57.54375076293945,35.00625228881836
1659029069145888500,2.495888427734375,-171.35626220703125,-57.54375076293945,34.78125
1659029069155888400,2.505888427734375,-171.3937530517578,-57.375003814697266,34.57500076293945
1659029069165888500,2.515888427734375,-171.35626220703125,-57.39375305175781,34.51875305175781
1659029069175888400,2.525888427734375,-171.33750915527344,-57.375003814697266,34.5
1659029069185888500,2.535888427734375,-171.52500915527344,-57.01875305175781,34.61250305175781
1659029069195888400,2.545888427734375,-171.50625610351562,-56.868751525878906,34.81875228881836
1659029069205888500,2.555888427734375,-171.2062530517578,-56.94375228881836,34.80000305175781
1659029069215888400,2.565888427734375,-171.15000915527344,-56.75625228881836,35.025001525878906
1659029069225888500,2.575888427734375,-171,-56.775001525878906,35.10000228881836
1659029069235888400,2.585888427734375,-170.96250915527344,-56.962501525878906,35.32500076293945
1659029069245888500,2.595888427734375,-170.8312530517578,-56.775001525878906,35.41875076293945
1659029069255888400,2.605888427734375,-170.88751220703125,-56.75625228881836,35.34375
1659029069265888500,2.615888427734375,-170.60626220703125,-56.98125076293945,35.306251525878906
1659029069275888400,2.625888427734375,-170.41876220703125,-57.093753814697266,35.306251525878906
1659029069285888500,2.635888427734375,-170.68125915527344,-57.000003814697266,35.51250076293945
1659029069295888400,2.645888427734375,-170.8312530517578,-57.20625305175781,35.587501525878906
1659029069305888500,2.655888427734375,-170.9250030517578,-57.187503814697266,35.75625228881836
1659029069315888400,2.665888427734375,-170.96250915527344,-57.093753814697266,35.75625228881836
1659029069325888500,2.675888427734375,-171.03750610351562,-57.187503814697266,35.83125305175781
1659029069335888400,2.685888427734375,-170.88751220703125,-57.07500076293945,35.868751525878906
1659029069345888500,2.695888427734375,-170.9250030517578,-57.056251525878906,35.94375228881836
1659029069355888400,2.705888427734375,-170.88751220703125,-57.07500076293945,35.962501525878906
1659029069365888500,2.715888427734375,-170.53125,-57.20625305175781,35.962501525878906
1659029069375888400,2.725888427734375,-170.38125610351562,-56.98125076293945,35.90625
1659029069385888500,2.735888427734375,-170.2687530517578,-57.07500076293945,35.85000228881836
1659029069395888400,2.745888427734375,-170.0812530517578,-57.056251525878906,35.83125305175781
1659029069405888500,2.755888427734375,-170.0625,-56.98125076293945,36
1659029069415888400,2.765888427734375,-170.04376220703125,-57.000003814697266,36.01875305175781
1659029069425888500,2.775888427734375,-169.96875,-57.11250305175781,36.03750228881836
1659029069435888400,2.785888427734375,-170.04376220703125,-57.16875076293945,35.962501525878906
1659029069445888500,2.795888427734375,-170.47500610351562,-57.20625305175781,35.94375228881836
1659029069455888400,2.805888427734375,-170.51251220703125,-57.150001525878906,35.94375228881836
1659029069465888500,2.815888427734375,-170.56875610351562,-56.98125076293945,36.01875305175781
1659029069475888400,2.825888427734375,-170.79376220703125,-56.812503814697266,36.243751525878906
1659029069485888500,2.835888427734375,-170.75625610351562,-56.812503814697266,36.243751525878906
1659029069495888400,2.845888427734375,-170.88751220703125,-56.73750305175781,36.26250076293945
1659029069505888500,2.855888427734375,-170.88751220703125,-56.625003814697266,36.28125
1659029069515888400,2.865888427734375,-170.86875915527344,-56.51250076293945,36.26250076293945
1659029069525888500,2.875888427734375,-170.75625610351562,-56.400001525878906,36.431251525878906
1659029069535888400,2.885888427734375,-170.7375030517578,-56.28750228881836,36.48750305175781
1659029069545888500,2.895888427734375,-170.5500030517578,-56.08125305175781,36.712501525878906
1659029069555888400,2.905888427734375,-170.2687530517578,-56.45625305175781,36.54375076293945
1659029069565888500,2.915888427734375,-170.1750030517578,-56.38125228881836,36.54375076293945
1659029069575888400,2.925888427734375,-170.28750610351562,-56.26875305175781,36.75
1659029069585888500,2.935888427734375,-170.38125610351562,-56.212501525878906,36.84375
1659029069595888400,2.945888427734375,-170.3625030517578,-56.08125305175781,37.23750305175781
1659029069605888500,2.955888427734375,-169.96875,-56.00625228881836,37.275001525878906
1659029069615888400,2.965888427734375,-169.96875,-56.08125305175781,37.59375
1659029069625888500,2.975888427734375,-169.93125915527344,-56.19375228881836,37.29375076293945
1659029069635888400,2.985888427734375,-170.02500915527344,-55.968753814697266,37.33125305175781
1659029069645888500,2.995888427734375,-169.91250610351562,-56.04375076293945,37.21875
1659029069655888400,3.005888427734375,-169.91250610351562,-56.00625228881836,37.14375305175781
1659029069665888500,3.015888427734375,-170.00625610351562,-56.10000228881836,37.16250228881836
1659029069675888400,3.025888427734375,-170.13751220703125,-56.38125228881836,37.05000305175781
1659029069685888500,3.035888427734375,-170.28750610351562,-56.38125228881836,37.125
1659029069695888400,3.045888427734375,-170.28750610351562,-56.38125228881836,36.82500076293945
1659029069705888500,3.055888427734375,-170.56875610351562,-56.28750228881836,37.05000305175781
1659029069715888400,3.065888427734375,-170.58750915527344,-56.306251525878906,37.03125
1659029069725888500,3.075888427734375,-170.9250030517578,-56.28750228881836,37.23750305175781
1659029069735888400,3.085888427734375,-170.75625610351562,-56.38125228881836,37.23750305175781
1659029069745888500,3.095888427734375,-170.70001220703125,-56.17500305175781,37.25625228881836
1659029069755888400,3.105888427734375,-170.90625,-56.062503814697266,37.275001525878906
1659029069765888500,3.115888427734375,-171.07501220703125,-56.062503814697266,37.3125
1659029069775888400,3.125888427734375,-171.09375,-56.26875305175781,37.33125305175781
1659029069785888500,3.135888427734375,-170.98126220703125,-56.437503814697266,37.38750076293945
1659029069795888400,3.145888427734375,-171.03750610351562,-56.41875076293945,37.61250305175781
1659029069805888500,3.155888427734375,-171.03750610351562,-56.41875076293945,37.48125076293945
1659029069815888400,3.165888427734375,-171.13125610351562,-56.45625305175781,37.70625305175781
1659029069825888500,3.175888427734375,-171.1125030517578,-56.47500228881836,37.91250228881836
1659029069835888400,3.185888427734375,-170.90625,-56.437503814697266,37.95000076293945
1659029069845888500,3.195888427734375,-170.8312530517578,-56.56875228881836,37.80000305175781
1659029069855888400,3.205888427734375,-170.90625,-56.26875305175781,38.025001525878906
1659029069865888500,3.215888427734375,-170.96250915527344,-56.250003814697266,37.91250228881836
1659029069875888400,3.225888427734375,-171.13125610351562,-56.156253814697266,37.81875228881836
1659029069885888500,3.235888427734375,-171.07501220703125,-56.19375228881836,37.95000076293945
1659029069895888400,3.245888427734375,-171.16876220703125,-56.212501525878906,37.78125
1659029069905888500,3.255888427734375,-171.07501220703125,-56.36250305175781,37.650001525878906
1659029069915888400,3.265888427734375,-171.1875,-56.36250305175781,37.61250305175781
1659029069925888500,3.275888427734375,-171.4875030517578,-56.531253814697266,37.72500228881836
1659029069935888400,3.285888427734375,-171.24375915527344,-56.718753814697266,37.72500228881836
1659029069945888500,3.295888427734375,-171.3000030517578,-56.70000076293945,37.80000305175781
1659029069955888400,3.305888427734375,-171.24375915527344,-56.79375076293945,37.743751525878906
1659029069965888500,3.315888427734375,-171.09375,-56.681251525878906,37.6875
1659029069975888400,3.325888427734375,-171,-56.83125305175781,37.78125
1659029069985888500,3.335888427734375,-171,-56.906253814697266,37.6875
1659029069995888400,3.345888427734375,-170.96250915527344,-57.056251525878906,37.48125076293945
1659029070005888500,3.355888427734375,-170.8125,-56.98125076293945,37.53750228881836
1659029070015888400,3.365888427734375,-170.94375610351562,-56.962501525878906,37.368751525878906
1659029070025888500,3.375888427734375,-170.96250915527344,-57.243751525878906,37.06875228881836
1659029070035888400,3.385888427734375,-171,-57.48750305175781,37.181251525878906
1659029070045888500,3.395888427734375,-171.16876220703125,-57.750003814697266,37.20000076293945
1659029070055888400,3.405888427734375,-171.1875,-57.562503814697266,37.125
1659029070065888500,3.415888427734375,-171.28125,-57.39375305175781,37.23750305175781
1659029070075888400,3.425888427734375,-171.35626220703125,-57.45000076293945,37.38750076293945
1659029070085888500,3.435888427734375,-171.46875,-57.58125305175781,37.29375076293945
1659029070095888400,3.445888427734375,-171.54376220703125,-57.712501525878906,37.181251525878906
1659029070105888500,3.455888427734375,-171.61875915527344,-57.69375228881836,37.25625228881836
1659029070115888400,3.465888427734375,-171.69375610351562,-57.712501525878906,37.14375305175781
1659029070125888500,3.475888427734375,-172.03125,-57.69375228881836,36.95625305175781
1659029070135888400,3.485888427734375,-172.2375030517578,-57.993751525878906,36.97500228881836
1659029070145888500,3.495888427734375,-172.18125915527344,-58.20000076293945,37.06875228881836
1659029070155888400,3.505888427734375,-172.18125915527344,-58.29375076293945,36.91875076293945
1659029070165888500,3.515888427734375,-171.97500610351562,-58.10625076293945,36.58125305175781
1659029070175888400,3.525888427734375,-171.9562530517578,-58.16250228881836,36.76875305175781
1659029070185888500,3.535888427734375,-171.80625915527344,-58.23750305175781,36.54375076293945
1659029070195888400,3.545888427734375,-171.65625,-58.35000228881836,36.31875228881836
1659029070205888500,3.555888427734375,-171.4875030517578,-58.57500076293945,36.20625305175781
1659029070215888400,3.565888427734375,-171.3937530517578,-58.53750228881836,36
1659029070225888500,3.575888427734375,-171.52500915527344,-58.53750228881836,35.493751525878906
1659029070235888400,3.585888427734375,-171.50625610351562,-58.51875305175781,35.400001525878906
1659029070245888500,3.595888427734375,-171.61875915527344,-58.70625305175781,35.45625305175781
1659029070255888400,3.605888427734375,-171.69375610351562,-58.61250305175781,35.118751525878906
1659029070265888500,3.615888427734375,-171.7687530517578,-58.500003814697266,35.28750228881836
1659029070275888400,3.625888427734375,-171.99375915527344,-58.556251525878906,35.15625
1659029070285888500,3.635888427734375,-171.9375,-58.29375076293945,35.118751525878906
1659029070295888400,3.645888427734375,-172.08750915527344,-58.44375228881836,35.00625228881836
1659029070305888500,3.655888427734375,-172.06875610351562,-58.57500076293945,35.08125305175781
1659029070315888400,3.665888427734375,-172.06875610351562,-58.51875305175781,34.98750305175781
1659029070325888500,3.675888427734375,-172.16250610351562,-58.48125076293945,34.95000076293945
1659029070335888400,3.685888427734375,-172.1437530517578,-58.368751525878906,34.96875
1659029070345888500,3.695888427734375,-172.35000610351562,-58.181251525878906,35.04375076293945
1659029070355888400,3.705888427734375,-172.44375610351562,-57.993751525878906,35.15625
1659029070365888500,3.715888427734375,-172.25625610351562,-57.91875076293945,35.118751525878906
1659029070375888400,3.725888427734375,-172.21875,-57.82500076293945,34.931251525878906
1659029070385888500,3.735888427734375,-172.40625,-57.712501525878906,34.931251525878906
1659029070395888400,3.745888427734375,-172.59375,-57.562503814697266,35.08125305175781
1659029070405888500,3.755888427734375,-172.48126220703125,-57.337501525878906,34.931251525878906
1659029070415888400,3.765888427734375,-172.53750610351562,-57.50625228881836,34.80000305175781
1659029070425888500,3.775888427734375,-172.46250915527344,-57.50625228881836,34.57500076293945
1659029070435888400,3.785888427734375,-172.3312530517578,-57.26250076293945,34.59375
1659029070445888500,3.795888427734375,-172.5187530517578,-57.03750228881836,34.80000305175781
1659029070455888400,3.805888427734375,-172.5,-56.85000228881836,35.025001525878906
1659029070465888500,3.815888427734375,-172.40625,-56.73750305175781,34.89375305175781
1659029070475888400,3.825888427734375,-172.35000610351562,-56.92500305175781,34.80000305175781
1659029070485888500,3.835888427734375,-172.25625610351562,-57.01875305175781,34.70625305175781
1659029070495888400,3.845888427734375,-172.21875,-56.718753814697266,34.85625076293945
1659029070505888500,3.855888427734375,-172.3125,-56.75625228881836,34.78125
1659029070515888400,3.865888427734375,-172.10626220703125,-56.868751525878906,34.81875228881836
1659029070525888500,3.875888427734375,-171.9562530517578,-57.093753814697266,34.6875
1659029070535888400,3.885888427734375,-171.9562530517578,-57.01875305175781,34.53750228881836
1659029070545888500,3.895888427734375,-171.88125610351562,-57.000003814697266,34.650001525878906
1659029070555888400,3.905888427734375,-171.90000915527344,-56.85000228881836,34.57500076293945
1659029070565888500,3.915888427734375,-172.01251220703125,-56.85000228881836,34.78125
1659029070575888400,3.925888427734375,-171.97500610351562,-57.03750228881836,34.81875228881836
1659029070585888500,3.935888427734375,-171.82501220703125,-57.187503814697266,34.96875
1659029070595888400,3.945888427734375,-172.03125,-57.30000305175781,34.91250228881836
1659029070605888500,3.955888427734375,-172.1437530517578,-57.22500228881836,34.89375305175781
1659029070615888400,3.965888427734375,-172.03125,-57.39375305175781,34.875
1659029070625888500,3.975888427734375,-172.125,-57.41250228881836,34.89375305175781
1659029070635888400,3.985888427734375,-172.10626220703125,-57.468753814697266,35.0625
1659029070645888500,3.995888427734375,-172.125,-57.45000076293945,35.04375076293945
1659029070655888400,4.005888427734375,-172.29376220703125,-57.69375228881836,34.95000076293945
1659029070665888500,4.015888427734375,-172.2375030517578,-57.50625228881836,34.875
1659029070675888400,4.025888427734375,-172.10626220703125,-57.45000076293945,34.96875
1659029070685888500,4.035888427734375,-172.18125915527344,-57.468753814697266,34.931251525878906
1659029070695888400,4.045888427734375,-172.1437530517578,-57.60000228881836,35.17500305175781
1659029070705888500,4.055888427734375,-172.06875610351562,-57.67500305175781,35.19375228881836
1659029070715888400,4.065888427734375,-172.03125,-57.67500305175781,35.10000228881836
1659029070725888500,4.075888427734375,-172.18125915527344,-57.73125076293945,35.00625228881836
1659029070735888400,4.085888427734375,-172.08750915527344,-57.468753814697266,34.98750305175781
1659029070745888500,4.095888427734375,-172.01251220703125,-57.50625228881836,34.931251525878906
1659029070755888400,4.105888427734375,-172.20001220703125,-57.45000076293945,34.931251525878906
1659029070765888500,4.115888427734375,-172.16250610351562,-57.54375076293945,35.15625
1659029070775888400,4.125888427734375,-172.125,-57.337501525878906,35.19375228881836
1659029070785888500,4.135888427734375,-172.21875,-57.468753814697266,35.08125305175781
1659029070795888400,4.145888427734375,-172.16250610351562,-57.281253814697266,35.19375228881836
1659029070805888500,4.155888427734375,-172.03125,-57.16875076293945,35.45625305175781
1659029070815888400,4.165888427734375,-172.18125915527344,-57.337501525878906,35.56875228881836
1659029070825888500,4.175888427734375,-172.4250030517578,-57.50625228881836,35.55000305175781
1659029070835888400,4.185888427734375,-172.2375030517578,-57.525001525878906,35.4375
1659029070845888500,4.195888427734375,-172.29376220703125,-57.375003814697266,35.36250305175781
1659029070855888400,4.205888427734375,-172.46250915527344,-57.431251525878906,35.41875076293945
1659029070865888500,4.215888427734375,-172.46250915527344,-57.45000076293945,35.493751525878906
1659029070875888400,4.225888427734375,-172.3125,-57.656253814697266,35.55000305175781
1659029070885888500,4.235888427734375,-172.4250030517578,-57.76875305175781,35.51250076293945
1659029070895888400,4.245888427734375,-172.44375610351562,-57.73125076293945,35.53125
1659029070905888500,4.255888427734375,-172.16250610351562,-57.63750076293945,35.98125076293945
1659029070915888400,4.265888427734375,-172.0500030517578,-57.73125076293945,36.11250305175781
1659029070925888500,4.275888427734375,-171.80625915527344,-57.97500228881836,36.056251525878906
1659029070935888400,4.285888427734375,-171.8625030517578,-58.087501525878906,36.09375
1659029070945888500,4.295888427734375,-171.5812530517578,-57.97500228881836,36.26250076293945
1659029070955888400,4.305888427734375,-171.61875915527344,-57.97500228881836,36.31875228881836
1659029070965888500,4.315888427734375,-171.24375915527344,-58.14375305175781,36.35625076293945
1659029070975888400,4.325888427734375,-171.0187530517578,-58.33125305175781,36.35625076293945
1659029070985888500,4.335888427734375,-170.90625,-58.53750228881836,36.150001525878906
1659029070995888400,4.345888427734375,-170.86875915527344,-58.61250305175781,36.45000076293945
1659029071005888500,4.355888427734375,-170.86875915527344,-58.48125076293945,36.41250228881836
1659029071015888400,4.365888427734375,-170.4375,-58.63125228881836,36.375
1659029071025888500,4.375888427734375,-170.6437530517578,-58.80000305175781,36.48750305175781
1659029071035888400,4.385888427734375,-170.51251220703125,-58.80000305175781,36.54375076293945
1659029071045888500,4.395888427734375,-170.79376220703125,-58.743751525878906,36.525001525878906
1659029071055888400,4.405888427734375,-170.98126220703125,-58.61250305175781,36.58125305175781
1659029071065888500,4.415888427734375,-171.05625915527344,-58.406253814697266,36.65625
1659029071075888400,4.425888427734375,-171.03750610351562,-58.48125076293945,36.375
1659029071085888500,4.435888427734375,-171.1875,-58.406253814697266,36.54375076293945
1659029071095888400,4.445888427734375,-171.375,-58.406253814697266,36.45000076293945
1659029071105888500,4.455888427734375,-171.33750915527344,-58.406253814697266,36.28125
1659029071115888400,4.465888427734375,-171.54376220703125,-58.44375228881836,36.243751525878906
1659029071125888500,4.475888427734375,-171.15000915527344,-58.687503814697266,36.39375305175781
1659029071135888400,4.485888427734375,-170.68125915527344,-58.61250305175781,36.41250228881836
1659029071145888500,4.495888427734375,-170.77500915527344,-58.837501525878906,36.525001525878906
1659029071155888400,4.505888427734375,-170.88751220703125,-58.781253814697266,36.60000228881836
1659029071165888500,4.515888427734375,-170.75625610351562,-59.118751525878906,36.63750076293945
1659029071175888400,4.525888427734375,-170.66250610351562,-58.931251525878906,36.67500305175781
1659029071185888500,4.535888427734375,-170.5500030517578,-58.91250228881836,36.84375
1659029071195888400,4.545888427734375,-170.53125,-58.875003814697266,36.95625305175781
1659029071205888500,4.555888427734375,-170.75625610351562,-58.72500228881836,37.03125
1659029071215888400,4.565888427734375,-170.98126220703125,-58.687503814697266,37.14375305175781
1659029071225888500,4.575888427734375,-170.77500915527344,-58.76250076293945,37.21875
1659029071235888400,4.585888427734375,-170.49375915527344,-58.72500228881836,37.10625076293945
1659029071245888500,4.595888427734375,-170.41876220703125,-58.53750228881836,37.10625076293945
1659029071255888400,4.605888427734375,-170.49375915527344,-58.593753814697266,37.16250228881836
1659029071265888500,4.615888427734375,-170.30625915527344,-58.57500076293945,37.181251525878906
1659029071275888400,4.625888427734375,-170.21250915527344,-58.85625076293945,36.993751525878906
1659029071285888500,4.635888427734375,-170.1750030517578,-58.781253814697266,36.91875076293945
1659029071295888400,4.645888427734375,-170.28750610351562,-58.81875228881836,36.91875076293945
1659029071305888500,4.655888427734375,-170.23126220703125,-58.57500076293945,36.78750228881836
1659029071315888400,4.665888427734375,-170.32501220703125,-58.53750228881836,36.88125228881836
1659029071325888500,4.675888427734375,-170.2687530517578,-58.76250076293945,36.97500228881836
1659029071335888400,4.685888427734375,-170.21250915527344,-58.80000305175781,36.91875076293945
1659029071345888500,4.695888427734375,-170.32501220703125,-58.53750228881836,37.087501525878906
1659029071355888400,4.705888427734375,-170.19375610351562,-58.125003814697266,37.275001525878906
1659029071365888500,4.715888427734375,-170.10000610351562,-58.125003814697266,37.087501525878906
1659029071375888400,4.725888427734375,-169.875,-58.181251525878906,36.993751525878906
1659029071385888500,4.735888427734375,-170.00625610351562,-57.97500228881836,37.03125
1659029071395888400,4.745888427734375,-170.02500915527344,-57.88125228881836,37.06875228881836
1659029071405888500,4.755888427734375,-169.85626220703125,-57.468753814697266,36.84375
1659029071415888400,4.765888427734375,-169.93125915527344,-57.35625076293945,37.01250076293945
1659029071425888500,4.775888427734375,-169.8000030517578,-57.22500228881836,36.78750228881836
1659029071435888400,4.785888427734375,-169.81875610351562,-57.056251525878906,36.82500076293945
1659029071445888500,4.795888427734375,-169.8000030517578,-56.85000228881836,36.712501525878906
1659029071455888400,4.805888427734375,-169.83750915527344,-56.60625076293945,36.75
1659029071465888500,4.815888427734375,-169.9875030517578,-56.51250076293945,36.60000228881836
1659029071475888400,4.825888427734375,-169.9875030517578,-56.400001525878906,36.58125305175781
1659029071485888500,4.835888427734375,-170.21250915527344,-56.36250305175781,36.806251525878906
1659029071495888400,4.845888427734375,-170.1750030517578,-56.156253814697266,36.712501525878906
1659029071505888500,4.855888427734375,-170.25,-56.19375228881836,36.69375228881836
1659029071515888400,4.865888427734375,-170.21250915527344,-56.13750076293945,36.60000228881836
1659029071525888500,4.875888427734375,-170.19375610351562,-56.23125076293945,36.69375228881836
1659029071535888400,4.885888427734375,-170.19375610351562,-56.400001525878906,36.58125305175781
1659029071545888500,4.895888427734375,-170.13751220703125,-56.531253814697266,36.63750076293945
1659029071555888400,4.905888427734375,-170.02500915527344,-56.56875228881836,36.58125305175781
1659029071565888500,4.915888427734375,-170.02500915527344,-56.437503814697266,36.375
1659029071575888400,4.925888427734375,-169.95001220703125,-56.51250076293945,36.30000305175781
1659029071585888500,4.935888427734375,-170.02500915527344,-56.60625076293945,36.20625305175781
1659029071595888400,4.945888427734375,-170.10000610351562,-56.962501525878906,36.01875305175781
1659029071605888500,4.955888427734375,-170.23126220703125,-56.906253814697266,36.07500076293945
1659029071615888400,4.965888427734375,-170.30625915527344,-56.868751525878906,36.09375
1659029071625888500,4.975888427734375,-170.3625030517578,-56.962501525878906,35.94375228881836
1659029071635888400,4.985888427734375,-170.41876220703125,-56.73750305175781,36.03750228881836
1659029071645888500,4.995888427734375,-170.53125,-56.83125305175781,36.01875305175781
1659029071655888400,5.005888427734375,-170.68125915527344,-56.88750076293945,36.337501525878906
1659029071665888500,5.015888427734375,-170.79376220703125,-56.775001525878906,36.41250228881836
1659029071675888400,5.025888427734375,-170.79376220703125,-56.73750305175781,36.712501525878906
1659029071685888500,5.035888427734375,-170.625,-56.681251525878906,36.86250305175781
1659029071695888400,5.045888427734375,-170.56875610351562,-56.625003814697266,37.10625076293945
1659029071705888500,5.055888427734375,-170.51251220703125,-56.56875228881836,37.29375076293945
1659029071715888400,5.065888427734375,-170.56875610351562,-56.962501525878906,37.33125305175781
1659029071725888500,5.075888427734375,-170.38125610351562,-56.868751525878906,37.462501525878906
1659029071735888400,5.085888427734375,-170.38125610351562,-56.868751525878906,37.33125305175781
1659029071745888500,5.095888427734375,-170.30625915527344,-57.093753814697266,37.33125305175781
1659029071755888400,5.105888427734375,-170.2687530517578,-57.093753814697266,37.29375076293945
1659029071765888500,5.115888427734375,-170.3625030517578,-57.187503814697266,37.10625076293945
1659029071775888400,5.125888427734375,-170.3625030517578,-57.35625076293945,37.06875228881836
1659029071785888500,5.135888427734375,-170.4562530517578,-57.31875228881836,37.06875228881836
1659029071795888400,5.145888427734375,-170.4375,-57.150001525878906,37.125
1659029071805888500,5.155888427734375,-170.68125915527344,-57.35625076293945,36.993751525878906
1659029071815888400,5.165888427734375,-170.66250610351562,-57.375003814697266,37.01250076293945
1659029071825888500,5.175888427734375,-170.88751220703125,-57.20625305175781,37.16250228881836
1659029071835888400,5.185888427734375,-170.9250030517578,-57.375003814697266,37.23750305175781
1659029071845888500,5.195888427734375,-171.1125030517578,-57.45000076293945,37.38750076293945
1659029071855888400,5.205888427734375,-171.09375,-57.30000305175781,37.38750076293945
1659029071865888500,5.215888427734375,-170.90625,-57.48750305175781,37.44375228881836
1659029071875888400,5.225888427734375,-171,-57.39375305175781,37.40625
1659029071885888500,5.235888427734375,-170.90625,-57.35625076293945,37.462501525878906
1659029071895888400,5.245888427734375,-171.07501220703125,-57.35625076293945,37.556251525878906
1659029071905888500,5.255888427734375,-170.8125,-57.48750305175781,37.556251525878906
1659029071915888400,5.265888427734375,-170.90625,-57.41250228881836,37.5
1659029071925888500,5.275888427734375,-170.88751220703125,-57.431251525878906,37.38750076293945
1659029071935888400,5.285888427734375,-171.0187530517578,-57.562503814697266,37.23750305175781
1659029071945888500,5.295888427734375,-170.98126220703125,-57.45000076293945,37.29375076293945
1659029071955888400,5.305888427734375,-171.07501220703125,-57.60000228881836,37.368751525878906
1659029071965888500,5.315888427734375,-171.26251220703125,-57.900001525878906,37.462501525878906
1659029071975888400,5.325888427734375,-171.3000030517578,-58.05000305175781,37.29375076293945
1659029071985888500,5.335888427734375,-171.35626220703125,-58.06875228881836,37.25625228881836
1659029071995888400,5.345888427734375,-171.35626220703125,-58.087501525878906,37.16250228881836
1659029072005888500,5.355888427734375,-171.41250610351562,-57.97500228881836,37.29375076293945
1659029072015888400,5.365888427734375,-171.41250610351562,-57.91875076293945,37.53750228881836
1659029072025888500,5.375888427734375,-171.69375610351562,-58.20000076293945,37.63125228881836
1659029072035888400,5.385888427734375,-171.80625915527344,-58.406253814697266,37.53750228881836
1659029072045888500,5.395888427734375,-171.8625030517578,-58.25625228881836,37.59375
1659029072055888400,5.405888427734375,-171.88125610351562,-58.20000076293945,37.78125
1659029072065888500,5.415888427734375,-171.88125610351562,-58.25625228881836,37.72500228881836
1659029072075888400,5.425888427734375,-171.97500610351562,-58.29375076293945,37.78125
1659029072085888500,5.435888427734375,-171.90000915527344,-58.38750076293945,37.931251525878906
1659029072095888400,5.445888427734375,-171.99375915527344,-58.556251525878906,37.80000305175781
1659029072105888500,5.455888427734375,-172.01251220703125,-58.275001525878906,37.78125
1659029072115888400,5.465888427734375,-172.01251220703125,-58.181251525878906,38.00625228881836
1659029072125888500,5.475888427734375,-171.8625030517578,-58.125003814697266,37.91250228881836
1659029072135888400,5.485888427734375,-171.65625,-58.125003814697266,38.00625228881836
1659029072145888500,5.495888427734375,-171.60000610351562,-58.125003814697266,38.13750076293945
1659029072155888400,5.505888427734375,-171.52500915527344,-58.218753814697266,38.23125076293945
1659029072165888500,5.515888427734375,-171.54376220703125,-58.33125305175781,38.212501525878906
1659029072175888400,5.525888427734375,-171.46875,-58.14375305175781,38.26875305175781
1659029072185888500,5.535888427734375,-171.22500610351562,-58.44375228881836,38.17500305175781
1659029072195888400,5.545888427734375,-170.98126220703125,-58.500003814697266,38.10000228881836
1659029072205888500,5.555888427734375,-171.0187530517578,-58.687503814697266,38.19375228881836
1659029072215888400,5.565888427734375,-170.88751220703125,-58.837501525878906,37.98750305175781
1659029072225888500,5.575888427734375,-171.15000915527344,-59.04375076293945,38.10000228881836
1659029072235888400,5.585888427734375,-171.16876220703125,-59.025001525878906,38.08125305175781
1659029072245888500,5.595888427734375,-171.09375,-59.10000228881836,38.0625
1659029072255888400,5.605888427734375,-171.1125030517578,-59.156253814697266,38.08125305175781
1659029072265888500,5.615888427734375,-171.1125030517578,-58.875003814697266,38.306251525878906
1659029072275888400,5.625888427734375,-171.07501220703125,-58.968753814697266,38.34375
1659029072285888500,5.635888427734375,-170.90625,-58.80000305175781,38.4375
1659029072295888400,5.645888427734375,-171.1875,-58.66875076293945,38.400001525878906
1659029072305888500,5.655888427734375,-171.07501220703125,-58.406253814697266,38.306251525878906
1659029072315888400,5.665888427734375,-171.16876220703125,-58.42500305175781,38.23125076293945
1659029072325888500,5.675888427734375,-171.22500610351562,-58.42500305175781,38.19375228881836
1659029072335888400,5.685888427734375,-171.22500610351562,-58.70625305175781,38.10000228881836
1659029072345888500,5.695888427734375,-171.375,-59.062503814697266,38.04375076293945
1659029072355888400,5.705888427734375,-171.4875030517578,-59.04375076293945,37.89375305175781
1659029072365888500,5.715888427734375,-171.69375610351562,-59.23125076293945,37.78125
1659029072375888400,5.725888427734375,-171.46875,-59.437503814697266,37.80000305175781
1659029072385888500,5.735888427734375,-171.52500915527344,-59.531253814697266,37.53750228881836
1659029072395888400,5.745888427734375,-171.3937530517578,-59.47500228881836,37.48125076293945
1659029072405888500,5.755888427734375,-171.43125915527344,-59.51250076293945,37.42500305175781
1659029072415888400,5.765888427734375,-171.41250610351562,-59.531253814697266,37.40625
1659029072425888500,5.775888427734375,-171.1125030517578,-59.343753814697266,37.42500305175781
1659029072435888400,5.785888427734375,-171.26251220703125,-59.250003814697266,37.6875
1659029072445888500,5.795888427734375,-171.0187530517578,-59.04375076293945,37.48125076293945
1659029072455888400,5.805888427734375,-170.96250915527344,-58.76250076293945,37.556251525878906
1659029072465888500,5.815888427734375,-170.7375030517578,-58.95000076293945,37.78125
1659029072475888400,5.825888427734375,-170.58750915527344,-58.931251525878906,37.95000076293945
1659029072485888500,5.835888427734375,-170.41876220703125,-58.80000305175781,37.931251525878906
1659029072495888400,5.845888427734375,-170.51251220703125,-58.687503814697266,38.0625
1659029072505888500,5.855888427734375,-170.71875,-58.687503814697266,37.875
1659029072515888400,5.865888427734375,-170.51251220703125,-58.98750305175781,37.5
1659029072525888500,5.875888427734375,-170.625,-59.156253814697266,37.63125228881836
1659029072535888400,5.885888427734375,-170.75625610351562,-59.41875076293945,37.66875076293945
1659029072545888500,5.895888427734375,-170.8312530517578,-59.400001525878906,37.5
1659029072555888400,5.905888427734375,-171.1875,-59.493751525878906,37.368751525878906
1659029072565888500,5.915888427734375,-171.2062530517578,-59.45625305175781,37.48125076293945
1659029072575888400,5.925888427734375,-171,-59.45625305175781,37.44375228881836
1659029072585888500,5.935888427734375,-171.0187530517578,-59.38125228881836,37.48125076293945
1659029072595888400,5.945888427734375,-171.07501220703125,-59.17500305175781,37.53750228881836
1659029072605888500,5.955888427734375,-171.16876220703125,-59.17500305175781,37.40625
1659029072615888400,5.965888427734375,-171.07501220703125,-59.118751525878906,37.275001525878906
1659029072625888500,5.975888427734375,-171.3000030517578,-58.89375305175781,37.368751525878906
1659029072635888400,5.985888427734375,-170.94375610351562,-58.968753814697266,37.5
1659029072645888500,5.995888427734375,-171.13125610351562,-59.19375228881836,37.33125305175781
1659029072655888400,6.005888427734375,-171.31875610351562,-59.32500076293945,37.25625228881836
1659029072665888500,6.015888427734375,-171.3937530517578,-59.60625076293945,36.993751525878906
1659029072675888400,6.025888427734375,-171.3937530517578,-59.64375305175781,37.03125
1659029072685888500,6.035888427734375,-171.3937530517578,-59.55000305175781,37.21875
1659029072695888400,6.045888427734375,-171.16876220703125,-59.70000076293945,37.25625228881836
1659029072705888500,6.055888427734375,-170.75625610351562,-59.906253814697266,37.462501525878906
1659029072715888400,6.065888427734375,-170.8312530517578,-59.868751525878906,37.59375
1659029072725888500,6.075888427734375,-170.625,-59.83125305175781,37.70625305175781
1659029072735888400,6.085888427734375,-170.53125,-59.83125305175781,37.96875
1659029072745888500,6.095888427734375,-170.2687530517578,-59.66250228881836,38.493751525878906
1659029072755888400,6.105888427734375,-170.32501220703125,-59.718753814697266,38.587501525878906
1659029072765888500,6.115888427734375,-170.15625,-59.94375228881836,38.73750305175781
1659029072775888400,6.125888427734375,-170.41876220703125,-60.01875305175781,38.64375305175781
1659029072785888500,6.135888427734375,-170.68125915527344,-59.98125076293945,38.53125
1659029072795888400,6.145888427734375,-170.51251220703125,-60.056251525878906,38.23125076293945
1659029072805888500,6.155888427734375,-170.53125,-60.150001525878906,38.25
1659029072815888400,6.165888427734375,-170.41876220703125,-60.056251525878906,37.875
1659029072825888500,6.175888427734375,-170.58750915527344,-60.093753814697266,37.59375
1659029072835888400,6.185888427734375,-170.47500610351562,-60.243751525878906,37.42500305175781
1659029072845888500,6.195888427734375,-170.19375610351562,-60.41250228881836,37.181251525878906
1659029072855888400,6.205888427734375,-169.875,-60.48750305175781,37.25625228881836
1659029072865888500,6.215888427734375,-169.57501220703125,-60.618751525878906,37.42500305175781
1659029072875888400,6.225888427734375,-169.72500610351562,-60.656253814697266,37.57500076293945
1659029072885888500,6.235888427734375,-169.76251220703125,-60.618751525878906,37.57500076293945
1659029072895888400,6.245888427734375,-169.7062530517578,-60.843753814697266,37.650001525878906
1659029072905888500,6.255888427734375,-169.59375,-61.05000305175781,37.72500228881836
1659029072915888400,6.265888427734375,-169.35000610351562,-60.91875076293945,37.91250228881836
1659029072925888500,6.275888427734375,-169.16250610351562,-60.69375228881836,37.837501525878906
1659029072935888400,6.285888427734375,-169.0500030517578,-60.656253814697266,37.80000305175781
1659029072945888500,6.295888427734375,-169.0500030517578,-60.73125076293945,37.61250305175781
1659029072955888400,6.305888427734375,-168.91876220703125,-60.86250305175781,37.6875
1659029072965888500,6.315888427734375,-168.69375610351562,-60.97500228881836,37.51875305175781
1659029072975888400,6.325888427734375,-168.46875,-60.900001525878906,37.63125228881836
1659029072985888500,6.335888427734375,-168.09375,-60.712501525878906,37.931251525878906
1659029072995888400,6.345888427734375,-168,-60.54375076293945,37.81875228881836
1659029073005888500,6.355888427734375,-168.28125,-60.618751525878906,38.04375076293945
1659029073015888400,6.365888427734375,-168.2062530517578,-60.60000228881836,38.118751525878906
1659029073025888500,6.375888427734375,-167.94375610351562,-60.58125305175781,38.15625
1659029073035888400,6.385888427734375,-167.79376220703125,-60.337501525878906,37.95000076293945
1659029073045888500,6.395888427734375,-167.5500030517578,-60.243751525878906,38.025001525878906
1659029073055888400,6.405888427734375,-167.51251220703125,-60.243751525878906,37.89375305175781
1659029073065888500,6.415888427734375,-167.51251220703125,-60.35625076293945,37.70625305175781
1659029073075888400,6.425888427734375,-167.53125,-60.50625228881836,37.80000305175781
1659029073085888500,6.435888427734375,-167.28750610351562,-60.468753814697266,37.53750228881836
1659029073095888400,6.445888427734375,-167.2687530517578,-60.16875076293945,37.462501525878906
1659029073105888500,6.455888427734375,-167.5500030517578,-60.187503814697266,37.21875
1659029073115888400,6.465888427734375,-167.60626220703125,-60.13125228881836,37.25625228881836
1659029073125888500,6.475888427734375,-167.49375915527344,-60.03750228881836,37.35000228881836
1659029073135888400,6.485888427734375,-167.4562530517578,-59.85000228881836,37.51875305175781
1659029073145888500,6.495888427734375,-167.32501220703125,-59.56875228881836,37.29375076293945
1659029073155888400,6.505888427734375,-167.32501220703125,-59.400001525878906,37.3125
1659029073165888500,6.515888427734375,-167.6437530517578,-59.306251525878906,37.53750228881836
1659029073175888400,6.525888427734375,-167.6437530517578,-59.19375228881836,37.70625305175781
1659029073185888500,6.535888427734375,-167.25,-58.89375305175781,37.95000076293945
1659029073195888400,6.545888427734375,-167.10000610351562,-58.89375305175781,37.98750305175781
1659029073205888500,6.555888427734375,-167.19375610351562,-58.781253814697266,38.10000228881836
1659029073215888400,6.565888427734375,-167.0812530517578,-58.462501525878906,38.212501525878906
1659029073225888500,6.575888427734375,-167.00625610351562,-58.500003814697266,38.23125076293945
1659029073235888400,6.585888427734375,-166.85626220703125,-58.650001525878906,38.25
1659029073245888500,6.595888427734375,-166.74375915527344,-58.556251525878906,38.0625
1659029073255888400,6.605888427734375,-166.76251220703125,-58.53750228881836,38.10000228881836
1659029073265888500,6.615888427734375,-166.91250610351562,-58.35000228881836,38.13750076293945
1659029073275888400,6.625888427734375,-166.95001220703125,-58.06875228881836,38.19375228881836
1659029073285888500,6.635888427734375,-166.8000030517578,-57.86250305175781,38.13750076293945
1659029073295888400,6.645888427734375,-166.81875610351562,-57.86250305175781,37.98750305175781
1659029073305888500,6.655888427734375,-166.83750915527344,-57.73125076293945,38.23125076293945
1659029073315888400,6.665888427734375,-166.83750915527344,-57.39375305175781,38.25
1659029073325888500,6.675888427734375,-166.81875610351562,-57.22500228881836,38.36250305175781
1659029073335888400,6.685888427734375,-166.83750915527344,-57.11250305175781,38.47500228881836
1659029073345888500,6.695888427734375,-166.83750915527344,-57.07500076293945,38.4375
1659029073355888400,6.705888427734375,-166.8937530517578,-56.98125076293945,38.493751525878906
1659029073365888500,6.715888427734375,-167.0812530517578,-56.906253814697266,38.38125228881836
1659029073375888400,6.725888427734375,-167.3625030517578,-56.98125076293945,38.41875076293945
1659029073385888500,6.735888427734375,-167.51251220703125,-56.75625228881836,38.47500228881836
1659029073395888400,6.745888427734375,-167.625,-56.79375076293945,38.493751525878906
1659029073405888500,6.755888427734375,-167.8312530517578,-56.625003814697266,38.66250228881836
1659029073415888400,6.765888427734375,-167.88751220703125,-56.718753814697266,38.4375
1659029073425888500,6.775888427734375,-168,-56.41875076293945,38.60625076293945
1659029073435888400,6.785888427734375,-168,-56.41875076293945,38.681251525878906
1659029073445888500,6.795888427734375,-167.94375610351562,-56.56875228881836,39.01875305175781
1659029073455888400,6.805888427734375,-167.66250610351562,-56.400001525878906,39.056251525878906
1659029073465888500,6.815888427734375,-167.85000610351562,-56.41875076293945,38.85000228881836
1659029073475888400,6.825888427734375,-168.15000915527344,-56.36250305175781,38.71875
1659029073485888500,6.835888427734375,-167.96250915527344,-56.45625305175781,38.94375228881836
1659029073495888400,6.845888427734375,-168.03750610351562,-56.36250305175781,39.07500076293945
1659029073505888500,6.855888427734375,-168.1125030517578,-56.56875228881836,39.01875305175781
1659029073515888400,6.865888427734375,-168.03750610351562,-56.56875228881836,38.868751525878906
1659029073525888500,6.875888427734375,-168.13125610351562,-56.41875076293945,38.8125
1659029073535888400,6.885888427734375,-168.45001220703125,-56.400001525878906,38.70000076293945
1659029073545888500,6.895888427734375,-168.41250610351562,-56.36250305175781,38.64375305175781
1659029073555888400,6.905888427734375,-168.2062530517578,-56.26875305175781,38.83125305175781
1659029073565888500,6.915888427734375,-168.13125610351562,-56.306251525878906,38.71875
1659029073575888400,6.925888427734375,-168.09375,-56.343753814697266,38.75625228881836
1659029073585888500,6.935888427734375,-168.15000915527344,-56.250003814697266,38.71875
1659029073595888400,6.945888427734375,-168.13125610351562,-56.17500305175781,38.83125305175781
1659029073605888500,6.955888427734375,-168.3000030517578,-56.062503814697266,38.79375076293945
1659029073615888400,6.965888427734375,-168.07501220703125,-56.118751525878906,38.88750076293945
1659029073625888500,6.975888427734375,-168.2062530517578,-56.19375228881836,39.09375
1659029073635888400,6.985888427734375,-168.46875,-56.08125305175781,39.01875305175781
1659029073645888500,6.995888427734375,-168.8625030517578,-55.81875228881836,38.8125
1659029073655888400,7.005888427734375,-168.8625030517578,-55.63125228881836,38.73750305175781
1659029073665888500,7.015888427734375,-168.7687530517578,-55.968753814697266,38.681251525878906
1659029073675888400,7.025888427734375,-168.88125610351562,-56.17500305175781,38.8125
1659029073685888500,7.035888427734375,-168.80625915527344,-56.250003814697266,38.79375076293945
1659029073695888400,7.045888427734375,-169.01251220703125,-56.250003814697266,38.90625
1659029073705888500,7.055888427734375,-168.8625030517578,-56.025001525878906,38.79375076293945
1659029073715888400,7.065888427734375,-168.6750030517578,-56.17500305175781,38.75625228881836
1659029073725888500,7.075888427734375,-168.50625610351562,-56.343753814697266,38.70000076293945
1659029073735888400,7.085888427734375,-168.61875915527344,-56.47500228881836,38.56875228881836
1659029073745888500,7.095888427734375,-168.63751220703125,-56.26875305175781,38.60625076293945
1659029073755888400,7.105888427734375,-168.91876220703125,-56.212501525878906,38.587501525878906
1659029073765888500,7.115888427734375,-168.9375,-56.04375076293945,38.64375305175781
1659029073775888400,7.125888427734375,-169.0500030517578,-56.10000228881836,38.51250076293945
1659029073785888500,7.135888427734375,-169.03125,-56.437503814697266,38.56875228881836
1659029073795888400,7.145888427734375,-169.18125915527344,-56.493751525878906,38.70000076293945
1659029073805888500,7.155888427734375,-169.16250610351562,-56.55000305175781,39.056251525878906
1659029073815888400,7.165888427734375,-169.1437530517578,-56.56875228881836,39.22500228881836
1659029073825888500,7.175888427734375,-169.2375030517578,-56.587501525878906,39.375
1659029073835888400,7.185888427734375,-169.18125915527344,-56.531253814697266,39.243751525878906
1659029073845888500,7.195888427734375,-169.08750915527344,-56.812503814697266,39.20625305175781
1659029073855888400,7.205888427734375,-169.18125915527344,-56.906253814697266,39.09375
1659029073865888500,7.215888427734375,-169.20001220703125,-56.812503814697266,39.30000305175781
1659029073875888400,7.225888427734375,-169.2375030517578,-56.88750076293945,39.22500228881836
1659029073885888500,7.235888427734375,-169.29376220703125,-56.94375228881836,38.962501525878906
1659029073895888400,7.245888427734375,-169.36875915527344,-57.13125228881836,39.1875
1659029073905888500,7.255888427734375,-169.35000610351562,-57.01875305175781,39.07500076293945
1659029073915888400,7.265888427734375,-169.20001220703125,-57.30000305175781,39.20625305175781
1659029073925888500,7.275888427734375,-169.20001220703125,-57.22500228881836,39.431251525878906
1659029073935888400,7.285888427734375,-168.97500610351562,-57.22500228881836,39.48750305175781
1659029073945888500,7.295888427734375,-169.10626220703125,-57.243751525878906,39.337501525878906
1659029073955888400,7.305888427734375,-168.97500610351562,-57.07500076293945,39.48750305175781
1659029073965888500,7.315888427734375,-168.88125610351562,-57.07500076293945,39.48750305175781
1659029073975888400,7.325888427734375,-168.75,-56.98125076293945,39.20625305175781
1659029073985888500,7.335888427734375,-168.65625,-57.20625305175781,39.13125228881836
1659029073995888400,7.345888427734375,-168.5812530517578,-57.11250305175781,39.056251525878906
1659029074005888500,7.355888427734375,-168.46875,-57.243751525878906,38.88750076293945
1659029074015888400,7.365888427734375,-168.7687530517578,-57.22500228881836,38.88750076293945
1659029074025888500,7.375888427734375,-168.82501220703125,-57.243751525878906,38.71875
1659029074035888400,7.385888427734375,-168.73126220703125,-57.22500228881836,38.64375305175781
1659029074045888500,7.395888427734375,-168.71250915527344,-57.337501525878906,38.60625076293945
1659029074055888400,7.405888427734375,-168.71250915527344,-57.375003814697266,38.60625076293945
1659029074065888500,7.415888427734375,-168.9562530517578,-57.375003814697266,38.79375076293945
1659029074075888400,7.425888427734375,-169.06875610351562,-57.20625305175781,38.8125
1659029074085888500,7.435888427734375,-169.48126220703125,-57.000003814697266,38.70000076293945
1659029074095888400,7.445888427734375,-169.21875,-57.03750228881836,38.71875
1659029074105888500,7.455888427734375,-169.16250610351562,-57.000003814697266,38.75625228881836
1659029074115888400,7.465888427734375,-169.36875915527344,-57.187503814697266,38.681251525878906
1659029074125888500,7.475888427734375,-169.6125030517578,-57.13125228881836,38.60625076293945
1659029074135888400,7.485888427734375,-169.53750610351562,-57.056251525878906,38.53125
1659029074145888500,7.495888427734375,-169.35000610351562,-56.83125305175781,38.681251525878906
1659029074155888400,7.505888427734375,-169.40625,-57.11250305175781,38.493751525878906
1659029074165888500,7.515888427734375,-169.40625,-56.962501525878906,38.56875228881836
1659029074175888400,7.525888427734375,-169.53750610351562,-56.812503814697266,38.681251525878906
1659029074185888500,7.535888427734375,-169.59375,-56.94375228881836,38.70000076293945
1659029074195888400,7.545888427734375,-169.5187530517578,-56.868751525878906,38.73750305175781
1659029074205888500,7.555888427734375,-169.55625915527344,-56.94375228881836,38.8125
1659029074215888400,7.565888427734375,-169.8937530517578,-56.92500305175781,38.92500305175781
1659029074225888500,7.575888427734375,-169.95001220703125,-57.20625305175781,38.587501525878906
1659029074235888400,7.585888427734375,-170.0812530517578,-57.01875305175781,38.83125305175781
1659029074245888500,7.595888427734375,-169.83750915527344,-57.16875076293945,38.868751525878906
1659029074255888400,7.605888427734375,-170.00625610351562,-57.22500228881836,38.90625
1659029074265888500,7.615888427734375,-170.02500915527344,-57.281253814697266,38.94375228881836
1659029074275888400,7.625888427734375,-170.02500915527344,-57.03750228881836,38.75625228881836
1659029074285888500,7.635888427734375,-169.72500610351562,-56.812503814697266,38.70000076293945
1659029074295888400,7.645888427734375,-169.53750610351562,-56.79375076293945,38.71875
1659029074305888500,7.655888427734375,-169.6875,-56.64375305175781,38.79375076293945
1659029074315888400,7.665888427734375,-169.66876220703125,-56.625003814697266,38.625
1659029074325888500,7.675888427734375,-169.66876220703125,-56.56875228881836,38.681251525878906
1659029074335888400,7.685888427734375,-169.5,-56.38125228881836,38.64375305175781
1659029074345888500,7.695888427734375,-169.29376220703125,-56.08125305175781,38.70000076293945
1659029074355888400,7.705888427734375,-169.25625610351562,-56.531253814697266,38.90625
1659029074365888500,7.715888427734375,-169.125,-56.587501525878906,38.98125076293945
1659029074375888400,7.725888427734375,-169.1437530517578,-56.587501525878906,38.83125305175781
1659029074385888500,7.735888427734375,-168.97500610351562,-56.64375305175781,38.79375076293945
1659029074395888400,7.745888427734375,-168.84375,-56.55000305175781,38.85000228881836
1659029074405888500,7.755888427734375,-168.8625030517578,-56.64375305175781,38.64375305175781
1659029074415888400,7.765888427734375,-168.80625915527344,-56.73750305175781,38.587501525878906
1659029074425888500,7.775888427734375,-168.8625030517578,-56.868751525878906,38.25
1659029074435888400,7.785888427734375,-168.9562530517578,-56.55000305175781,38.38125228881836
1659029074445888500,7.795888427734375,-169.16250610351562,-56.531253814697266,38.32500076293945
1659029074455888400,7.805888427734375,-169.08750915527344,-56.55000305175781,38.4375
1659029074465888500,7.815888427734375,-169.0500030517578,-56.36250305175781,38.53125
1659029074475888400,7.825888427734375,-169.18125915527344,-56.45625305175781,38.4375
1659029074485888500,7.835888427734375,-169.3125,-56.45625305175781,38.70000076293945
1659029074495888400,7.845888427734375,-169.38751220703125,-56.437503814697266,38.681251525878906
1659029074505888500,7.855888427734375,-169.44375610351562,-56.250003814697266,39.056251525878906
1659029074515888400,7.865888427734375,-169.3125,-56.343753814697266,38.71875
1659029074525888500,7.875888427734375,-169.3312530517578,-56.306251525878906,38.92500305175781
1659029074535888400,7.885888427734375,-169.46250915527344,-56.23125076293945,38.90625
1659029074545888500,7.895888427734375,-169.35000610351562,-56.118751525878906,38.92500305175781
1659029074555888400,7.905888427734375,-169.125,-56.00625228881836,39.056251525878906
1659029074565888500,7.915888427734375,-168.9562530517578,-56.00625228881836,39.03750228881836
1659029074575888400,7.925888427734375,-168.8625030517578,-56.08125305175781,39.26250076293945
1659029074585888500,7.935888427734375,-168.9562530517578,-56.17500305175781,39.243751525878906
1659029074595888400,7.945888427734375,-169.0500030517578,-56.062503814697266,39.46875
1659029074605888500,7.955888427734375,-169.18125915527344,-56.23125076293945,39.46875
1659029074615888400,7.965888427734375,-169.0500030517578,-56.343753814697266,39.58125305175781
1659029074625888500,7.975888427734375,-169.25625610351562,-56.28750228881836,39.5625
1659029074635888400,7.985888427734375,-169.2375030517578,-56.19375228881836,39.45000076293945
1659029074645888500,7.995888427734375,-169.2375030517578,-56.23125076293945,39.337501525878906
1659029074655888400,8.005888427734375,-169.3125,-55.931251525878906,39.28125
1659029074665888500,8.015888427734374,-169.3125,-55.931251525878906,39.09375
1659029074675888400,8.025888427734374,-169.3312530517578,-55.931251525878906,39.22500228881836
1659029074685888500,8.035888427734376,-169.16250610351562,-55.76250076293945,39.35625076293945
1659029074695888400,8.045888427734376,-169.4250030517578,-55.70625305175781,39.525001525878906
1659029074705888500,8.055888427734375,-169.36875915527344,-55.80000305175781,39.525001525878906
1659029074715888400,8.065888427734375,-169.46250915527344,-55.968753814697266,39.78750228881836
1659029074725888500,8.075888427734375,-169.55625915527344,-55.875003814697266,39.78750228881836
1659029074735888400,8.085888427734375,-169.6875,-56.10000228881836,39.65625
1659029074745888500,8.095888427734375,-169.53750610351562,-56.118751525878906,39.806251525878906
1659029074755888400,8.105888427734374,-169.53750610351562,-56.212501525878906,39.75
1659029074765888500,8.115888427734374,-169.53750610351562,-56.41875076293945,39.525001525878906
1659029074775888400,8.125888427734376,-169.3125,-56.41875076293945,39.11250305175781
1659029074785888500,8.135888427734375,-169.5187530517578,-56.55000305175781,39.150001525878906
1659029074795888400,8.145888427734375,-169.63125610351562,-56.60625076293945,38.98125076293945
1659029074805888500,8.155888427734375,-169.72500610351562,-56.70000076293945,39.056251525878906
1659029074815888400,8.165888427734375,-169.53750610351562,-56.60625076293945,39.20625305175781
1659029074825888500,8.175888427734375,-169.65000915527344,-56.45625305175781,39.31875228881836
1659029074835888400,8.185888427734374,-169.72500610351562,-56.28750228881836,39.22500228881836
1659029074845888500,8.195888427734374,-169.83750915527344,-56.08125305175781,39.243751525878906
1659029074855888400,8.205888427734376,-169.9875030517578,-56.062503814697266,39.63750076293945
1659029074865888500,8.215888427734376,-169.83750915527344,-55.91250228881836,39.65625
1659029074875888400,8.225888427734375,-169.96875,-55.875003814697266,39.69375228881836
1659029074885888500,8.235888427734375,-169.81875610351562,-55.743751525878906,39.76875305175781
1659029074895888400,8.245888427734375,-169.95001220703125,-55.687503814697266,39.712501525878906
1659029074905888500,8.255888427734375,-169.85626220703125,-55.95000076293945,39.618751525878906
1659029074915888400,8.265888427734374,-169.93125915527344,-55.931251525878906,39.67500305175781
1659029074925888500,8.275888427734374,-169.9875030517578,-56.250003814697266,39.58125305175781
1659029074935888400,8.285888427734376,-169.9875030517578,-56.19375228881836,39.39375305175781
1659029074945888500,8.295888427734376,-170.04376220703125,-56.493751525878906,39.35625076293945
1659029074955888400,8.305888427734375,-169.76251220703125,-56.28750228881836,39.375
1659029074965888500,8.315888427734375,-169.78125,-56.493751525878906,39.16875076293945
1659029074975888400,8.325888427734375,-169.78125,-56.400001525878906,39.22500228881836
1659029074985888500,8.335888427734375,-169.8000030517578,-56.38125228881836,39.243751525878906
1659029074995888400,8.345888427734375,-169.74375915527344,-56.47500228881836,39.243751525878906
1659029075005888500,8.355888427734374,-169.6125030517578,-56.28750228881836,39.35625076293945
1659029075015888400,8.365888427734374,-169.36875915527344,-56.38125228881836,39.45000076293945
1659029075025888500,8.375888427734376,-169.25625610351562,-56.13750076293945,39.618751525878906
1659029075035888400,8.385888427734375,-169.48126220703125,-56.45625305175781,39.618751525878906
1659029075045888500,8.395888427734375,-169.59375,-56.28750228881836,39.69375228881836
1659029075055888400,8.405888427734375,-169.59375,-56.51250076293945,39.76875305175781
1659029075065888500,8.415888427734375,-169.6875,-56.400001525878906,39.91875076293945
1659029075075888400,8.425888427734375,-169.72500610351562,-56.47500228881836,39.97500228881836
1659029075085888500,8.435888427734374,-169.81875610351562,-56.437503814697266,39.88125228881836
1659029075095888400,8.445888427734374,-169.96875,-56.17500305175781,39.82500076293945
1659029075105888500,8.455888427734376,-170.11875915527344,-56.306251525878906,39.806251525878906
1659029075115888400,8.465888427734376,-170.0625,-56.118751525878906,39.84375
1659029075125888500,8.475888427734375,-170.04376220703125,-55.968753814697266,39.78750228881836
1659029075135888400,8.485888427734375,-170.02500915527344,-56.00625228881836,39.806251525878906
1659029075145888500,8.495888427734375,-169.85626220703125,-55.98750305175781,39.76875305175781
1659029075155888400,8.505888427734375,-169.8000030517578,-56.04375076293945,39.618751525878906
1659029075165888500,8.515888427734374,-169.55625915527344,-56.025001525878906,39.84375
1659029075175888400,8.525888427734374,-169.63125610351562,-56.250003814697266,39.67500305175781
1659029075185888500,8.535888427734376,-169.44375610351562,-56.156253814697266,39.58125305175781
1659029075195888400,8.545888427734376,-169.46250915527344,-56.10000228881836,39.69375228881836
1659029075205888500,8.555888427734375,-169.5,-56.250003814697266,39.75
1659029075215888400,8.565888427734375,-169.59375,-56.19375228881836,39.65625
1659029075225888500,8.575888427734375,-169.7062530517578,-56.400001525878906,39.50625228881836
1659029075235888400,8.585888427734375,-169.81875610351562,-56.250003814697266,39.48750305175781
1659029075245888500,8.595888427734375,-170.1750030517578,-56.23125076293945,39.431251525878906
1659029075255888400,8.605888427734374,-170.19375610351562,-56.10000228881836,39.48750305175781
1659029075265888500,8.615888427734374,-170.15625,-56.062503814697266,39.431251525878906
1659029075275888400,8.625888427734376,-170.15625,-56.23125076293945,39.26250076293945
1659029075285888500,8.635888427734375,-170.30625915527344,-56.156253814697266,39.28125
1659029075295888400,8.645888427734375,-170.0812530517578,-56.212501525878906,39.243751525878906
1659029075305888500,8.655888427734375,-170.10000610351562,-55.968753814697266,39.54375076293945
1659029075315888400,8.665888427734375,-169.8937530517578,-56.00625228881836,39.712501525878906
1659029075325888500,8.675888427734375,-169.48126220703125,-55.98750305175781,39.65625
1659029075335888400,8.685888427734374,-169.36875915527344,-56.10000228881836,39.95625305175781
1659029075345888500,8.695888427734374,-169.4250030517578,-56.32500076293945,40.03125
1659029075355888400,8.705888427734376,-169.4250030517578,-56.10000228881836,40.20000076293945
1659029075365888500,8.715888427734376,-169.21875,-56.13750076293945,40.368751525878906
1659029075375888400,8.725888427734375,-169.35000610351562,-56.17500305175781,40.38750076293945
1659029075385888500,8.735888427734375,-169.2375030517578,-56.13750076293945,40.23750305175781
1659029075395888400,8.745888427734375,-169.20001220703125,-56.00625228881836,40.21875
1659029075405888500,8.755888427734375,-169.48126220703125,-55.875003814697266,40.29375076293945
1659029075415888400,8.765888427734374,-169.72500610351562,-55.72500228881836,40.20000076293945
1659029075425888500,8.775888427734374,-169.8937530517578,-55.61250305175781,40.181251525878906
1659029075435888400,8.785888427734376,-169.74375915527344,-55.63125228881836,39.993751525878906
1659029075445888500,8.795888427734376,-169.85626220703125,-55.593753814697266,39.88125228881836
1659029075455888400,8.805888427734375,-169.76251220703125,-55.61250305175781,39.88125228881836
1659029075465888500,8.815888427734375,-169.8937530517578,-55.650001525878906,39.806251525878906
1659029075475888400,8.825888427734375,-170.00625610351562,-55.70625305175781,39.73125076293945
1659029075485888500,8.835888427734375,-169.85626220703125,-55.76250076293945,39.67500305175781
1659029075495888400,8.845888427734375,-169.7062530517578,-55.743751525878906,39.806251525878906
1659029075505888500,8.855888427734374,-169.59375,-55.63125228881836,40.06875228881836
1659029075515888400,8.865888427734374,-169.65000915527344,-55.63125228881836,40.3125
1659029075525888500,8.875888427734376,-169.48126220703125,-55.687503814697266,40.44375228881836
1659029075535888400,8.885888427734375,-169.6875,-55.63125228881836,40.51875305175781
1659029075545888500,8.895888427734375,-169.78125,-55.63125228881836,40.59375
1659029075555888400,8.905888427734375,-169.76251220703125,-55.61250305175781,40.57500076293945
1659029075565888500,8.915888427734375,-170.02500915527344,-55.500003814697266,40.72500228881836
1659029075575888400,8.925888427734375,-170.0812530517578,-55.48125076293945,40.743751525878906
1659029075585888500,8.935888427734374,-169.95001220703125,-55.51875305175781,40.5
1659029075595888400,8.945888427734374,-169.8937530517578,-55.556251525878906,40.462501525878906
1659029075605888500,8.955888427734376,-169.93125915527344,-55.38750076293945,40.53750228881836
1659029075615888400,8.965888427734376,-169.76251220703125,-55.25625228881836,40.368751525878906
1659029075625888500,8.975888427734375,-169.72500610351562,-55.16250228881836,40.3125
1659029075635888400,8.985888427734375,-169.57501220703125,-54.97500228881836,40.63125228881836
1659029075645888500,8.995888427734375,-169.46250915527344,-54.95625305175781,40.53750228881836
1659029075655888400,9.005888427734375,-169.46250915527344,-54.993751525878906,40.48125076293945
1659029075665888500,9.015888427734374,-169.57501220703125,-54.82500076293945,40.556251525878906
1659029075675888400,9.025888427734374,-169.6875,-54.937503814697266,40.650001525878906
1659029075685888500,9.035888427734376,-169.53750610351562,-55.25625228881836,40.48125076293945
1659029075695888400,9.045888427734376,-169.40625,-55.16250228881836,40.72500228881836
1659029075705888500,9.055888427734375,-169.27500915527344,-55.125003814697266,40.875
1659029075715888400,9.065888427734375,-169.38751220703125,-55.312503814697266,40.81875228881836
1659029075725888500,9.075888427734375,-169.4250030517578,-55.33125305175781,40.95000076293945
1659029075735888400,9.085888427734375,-169.3125,-55.44375228881836,41.025001525878906
1659029075745888500,9.095888427734375,-169.25625610351562,-55.44375228881836,40.96875
1659029075755888400,9.105888427734374,-169.25625610351562,-55.25625228881836,40.85625076293945
1659029075765888500,9.115888427734374,-169.35000610351562,-54.993751525878906,41.0625
1659029075775888400,9.125888427734376,-169.57501220703125,-55.20000076293945,41.0625
1659029075785888500,9.135888427734375,-169.66876220703125,-54.97500228881836,41.118751525878906
1659029075795888400,9.145888427734375,-169.74375915527344,-54.900001525878906,41.04375076293945
1659029075805888500,9.155888427734375,-169.59375,-54.937503814697266,41.15625
1659029075815888400,9.165888427734375,-169.53750610351562,-54.60000228881836,41.17500305175781
1659029075825888500,9.175888427734375,-169.36875915527344,-54.50625228881836,41.587501525878906
1659029075835888400,9.185888427734374,-169.36875915527344,-54.50625228881836,41.55000305175781
1659029075845888500,9.195888427734374,-169.35000610351562,-54.468753814697266,41.71875
1659029075855888400,9.205888427734376,-169.35000610351562,-54.281253814697266,41.8125
1659029075865888500,9.215888427734376,-169.29376220703125,-54.48750305175781,41.92500305175781
1659029075875888400,9.225888427734375,-169.2375030517578,-54.45000076293945,42.150001525878906
1659029075885888500,9.235888427734375,-169.27500915527344,-54.20625305175781,42.22500228881836
1659029075895888400,9.245888427734375,-169.29376220703125,-54.41250228881836,42.22500228881836
1659029075905888500,9.255888427734375,-169.48126220703125,-54.45000076293945,42.1875
1659029075915888400,9.265888427734374,-169.36875915527344,-54.39375305175781,42.22500228881836
1659029075925888500,9.275888427734374,-169.38751220703125,-54.337501525878906,41.962501525878906
1659029075935888400,9.285888427734376,-169.1437530517578,-54.20625305175781,41.85000228881836
1659029075945888500,9.295888427734376,-169.0500030517578,-54.375003814697266,41.71875
1659029075955888400,9.305888427734375,-169.125,-54.35625076293945,41.70000076293945
1659029075965888500,9.315888427734375,-169.0500030517578,-54.60000228881836,41.60625076293945
1659029075975888400,9.325888427734375,-169.25625610351562,-54.468753814697266,41.71875
1659029075985888500,9.335888427734375,-169.25625610351562,-54.45000076293945,41.53125
1659029075995888400,9.345888427734375,-169.35000610351562,-54.16875076293945,41.75625228881836
1659029076005888500,9.355888427734374,-169.3312530517578,-54.150001525878906,42.056251525878906
1659029076015888400,9.365888427734374,-169.4250030517578,-54.22500228881836,42.31875228881836
1659029076025888500,9.375888427734376,-169.38751220703125,-54.11250305175781,42.58125305175781
1659029076035888400,9.385888427734375,-169.06875610351562,-54.01875305175781,42.618751525878906
1659029076045888500,9.395888427734375,-169.18125915527344,-53.906253814697266,42.91875076293945
1659029076055888400,9.405888427734375,-169.0500030517578,-53.98125076293945,42.97500228881836
1659029076065888500,9.415888427734375,-168.9375,-53.98125076293945,43.10625076293945
1659029076075888400,9.425888427734375,-168.78750610351562,-54.16875076293945,43.10625076293945
1659029076085888500,9.435888427734374,-168.73126220703125,-53.94375228881836,43.181251525878906
1659029076095888400,9.445888427734374,-168.6750030517578,-53.64375305175781,43.29375076293945
1659029076105888500,9.455888427734376,-168.54376220703125,-53.64375305175781,43.29375076293945
1659029076115888400,9.465888427734376,-168.61875915527344,-53.437503814697266,43.48125076293945
1659029076125888500,9.475888427734375,-168.6750030517578,-53.437503814697266,43.35000228881836
1659029076135888400,9.485888427734375,-168.45001220703125,-53.306251525878906,43.33125305175781
1659029076145888500,9.495888427734375,-168.1125030517578,-53.26875305175781,43.650001525878906
1659029076155888400,9.505888427734375,-167.94375610351562,-53.19375228881836,43.81875228881836
1659029076165888500,9.515888427734374,-167.86875915527344,-53.19375228881836,44.08125305175781
1659029076175888400,9.525888427734374,-167.8312530517578,-53.04375076293945,44.212501525878906
1659029076185888500,9.535888427734376,-167.66250610351562,-52.781253814697266,44.34375
1659029076195888400,9.545888427734376,-167.71875,-52.95000076293945,44.28750228881836
1659029076205888500,9.555888427734375,-167.56875610351562,-52.781253814697266,44.56875228881836
1659029076215888400,9.565888427734375,-167.60626220703125,-52.48125076293945,44.83125305175781
1659029076225888500,9.575888427734375,-167.79376220703125,-52.35000228881836,44.8125
1659029076235888400,9.585888427734375,-167.90625,-52.218753814697266,44.85000228881836
1659029076245888500,9.595888427734375,-167.70001220703125,-52.48125076293945,44.71875
1659029076255888400,9.605888427734374,-167.60626220703125,-52.57500076293945,44.70000076293945
1659029076265888500,9.615888427734374,-167.77500915527344,-52.61250305175781,44.79375076293945
1659029076275888400,9.625888427734376,-167.58750915527344,-52.61250305175781,44.94375228881836
1659029076285888500,9.635888427734375,-167.41876220703125,-52.57500076293945,45.03750228881836
1659029076295888400,9.645888427734375,-167.32501220703125,-52.76250076293945,44.94375228881836
1659029076305888500,9.655888427734375,-167.30625915527344,-52.875003814697266,45.16875076293945
1659029076315888400,9.665888427734375,-167.34375,-52.89375305175781,45.31875228881836
1659029076325888500,9.675888427734375,-167.58750915527344,-52.837501525878906,45.31875228881836
1659029076335888400,9.685888427734374,-167.47500610351562,-53.062503814697266,45.60000228881836
1659029076345888500,9.695888427734374,-167.41876220703125,-53.062503814697266,45.65625
1659029076355888400,9.705888427734376,-167.68125915527344,-53.08125305175781,45.69375228881836
1659029076365888500,9.715888427734376,-167.71875,-53.19375228881836,45.91875076293945
1659029076375888400,9.725888427734375,-167.79376220703125,-53.08125305175781,46.25625228881836
1659029076385888500,9.735888427734375,-167.71875,-52.687503814697266,46.53750228881836
1659029076395888400,9.745888427734375,-167.66250610351562,-52.70625305175781,46.6875
1659029076405888500,9.755888427734375,-167.5500030517578,-52.61250305175781,46.931251525878906
1659029076415888400,9.765888427734374,-167.41876220703125,-52.66875076293945,46.76250076293945
1659029076425888500,9.775888427734374,-167.4375,-52.66875076293945,47.04375076293945
1659029076435888400,9.785888427734376,-167.34375,-52.556251525878906,47.60625076293945
1659029076445888500,9.795888427734376,-167.32501220703125,-52.48125076293945,47.681251525878906
1659029076455888400,9.805888427734375,-167.30625915527344,-52.556251525878906,47.55000305175781
1659029076465888500,9.815888427734375,-167.41876220703125,-52.76250076293945,47.17500305175781
1659029076475888400,9.825888427734375,-167.41876220703125,-52.76250076293945,47.17500305175781
1659029076485888500,9.835888427734375,-167.28750610351562,-52.650001525878906,47.212501525878906
1659029076495888400,9.845888427734375,-167.53125,-52.25625228881836,47.34375
1659029076505888500,9.855888427734374,-167.79376220703125,-52.06875228881836,47.25
1659029076515888400,9.865888427734374,-167.56875610351562,-52.087501525878906,46.650001525878906
1659029076525888500,9.875888427734376,-167.60626220703125,-51.95625305175781,46.66875076293945
1659029076535888400,9.885888427734375,-167.58750915527344,-51.91875076293945,46.80000305175781
1659029076545888500,9.895888427734375,-167.41876220703125,-51.843753814697266,46.96875
1659029076555888400,9.905888427734375,-167.47500610351562,-51.82500076293945,46.98750305175781
1659029076565888500,9.915888427734375,-167.8125,-51.86250305175781,46.78125
1659029076575888400,9.925888427734375,-167.47500610351562,-52.10625076293945,46.89375305175781
1659029076585888500,9.935888427734374,-167.10000610351562,-52.125003814697266,46.743751525878906
1659029076595888400,9.945888427734374,-167.21250915527344,-52.06875228881836,47.025001525878906
1659029076605888500,9.955888427734376,-166.9875030517578,-52.16250228881836,46.85625076293945
1659029076615888400,9.965888427734376,-166.6875,-52.462501525878906,46.76250076293945
1659029076625888500,9.975888427734375,-166.9875030517578,-52.61250305175781,46.61250305175781
1659029076635888400,9.985888427734375,-166.81875610351562,-52.66875076293945,46.40625
1659029076645888500,9.995888427734375,-166.5,-52.72500228881836,46.51875305175781
1659029076655888400,10.005888427734375,-166.83750915527344,-52.781253814697266,46.368751525878906
1659029076665888500,10.015888427734374,-166.8937530517578,-52.89375305175781,46.51875305175781
1659029076675888400,10.025888427734374,-166.83750915527344,-52.875003814697266,46.63125228881836
1659029076685888500,10.035888427734376,-167.0812530517578,-52.875003814697266,46.57500076293945
1659029076695888400,10.045888427734376,-167.25,-52.500003814697266,46.53750228881836
1659029076705888500,10.055888427734375,-167.13751220703125,-52.42500305175781,46.61250305175781
1659029076715888400,10.065888427734375,-167.1750030517578,-52.20000076293945,46.72500228881836
1659029076725888500,10.075888427734375,-167.30625915527344,-51.97500228881836,46.66875076293945
1659029076735888400,10.085888427734375,-167.2687530517578,-52.06875228881836,46.66875076293945
1659029076745888500,10.095888427734375,-167.15625,-52.06875228881836,46.72500228881836
1659029076755888400,10.105888427734374,-167.34375,-52.218753814697266,46.556251525878906
1659029076765888500,10.115888427734374,-167.4375,-52.462501525878906,46.61250305175781
1659029076775888400,10.125888427734376,-167.47500610351562,-52.44375228881836,46.743751525878906
1659029076785888500,10.135888427734375,-167.53125,-52.44375228881836,46.80000305175781
1659029076795888400,10.145888427734375,-167.5500030517578,-52.650001525878906,47.00625228881836
