time,seconds_elapsed,z,y,x
1659027025632524000,0.05152392578125,0,0,0
1659027025642193700,0.061193603515625,0.009571075439453125,0.007791012525558472,-0.002412654459476471
1659027025651863600,0.070863525390625,-0.0063800811767578125,-0.006789594888687134,-0.004065718501806259
1659027025661533200,0.080533203125,-0.021831512451171875,-0.005179107189178467,-0.011177880689501762
1659027025671203000,0.090203125,-0.024164199829101562,-0.011800497770309448,-0.01280326209962368
1659027025680872700,0.099872802734375,-0.02411937713623047,-0.018999695777893066,-0.019675498828291893
1659027025690542300,0.109542236328125,-0.012464523315429688,-0.006228744983673096,-0.01482292078435421
1659027025700212200,0.119212158203125,-0.0077610015869140625,-0.008793085813522339,-0.04024909436702728
1659027025709881900,0.1288818359375,0.0016164779663085938,0.010006129741668701,-0.02304968610405922
1659027025719551500,0.138551513671875,0.0025396347045898438,0.007694631814956665,-0.03375200927257538
1659027025729221400,0.148221435546875,0.007752418518066406,0.0100477933883667,-0.024192173033952713
1659027025738891000,0.15789111328125,0.014788627624511719,0.015605270862579346,-0.02111414447426796
1659027025748560600,0.167560546875,0.032431602478027344,0.015269070863723755,-0.01287197694182396
1659027025758230500,0.17723046875,0.022344589233398438,0.019572019577026367,-0.016377855092287064
1659027025767900200,0.186900146484375,0.010809898376464844,0.02924475073814392,0.00475058751180768
1659027025777570000,0.196570068359375,0.011258125305175781,0.023997604846954346,0.0111200837418437
1659027025787239700,0.20623974609375,0.030866622924804688,0.01915326714515686,0.004771283827722073
1659027025796909300,0.215909423828125,0.015587806701660156,0.012548476457595825,0.019132457673549652
1659027025806579200,0.2255791015625,0.01363372802734375,0.02324962615966797,0.021435199305415154
1659027025816248800,0.235248779296875,0.006129264831542969,0.005120456218719482,0.031637612730264664
1659027025825918500,0.24491845703125,0.00811767578125,0.002569913864135742,0.0015496297273784876
1659027025835588400,0.25458837890625,-0.00481414794921875,0.002425253391265869,0.012778833508491516
1659027025845258000,0.264258056640625,-0.024054527282714844,-0.006973862648010254,0.017879612743854523
1659027025854927600,0.273927734375,-0.027632713317871094,-0.007996290922164917,0.021739158779382706
1659027025864597500,0.283597412109375,-0.023075103759765625,0.008208811283111572,0.020834164693951607
1659027025874267100,0.29326708984375,-0.00377655029296875,0.004274904727935791,0.02347635105252266
1659027025883937000,0.30293701171875,-0.00939178466796875,-0.005239635705947876,0.022624343633651733
1659027025893606700,0.312606689453125,-0.022890090942382812,-0.006512999534606934,0.024057602509856224
1659027025903276300,0.3222763671875,-0.018625259399414062,-0.004285246133804321,0.026766831055283546
1659027025912946200,0.3319462890625,-0.017995834350585938,-0.02405509352684021,0.025948021560907364
1659027025922615800,0.34161572265625,0.011537551879882812,-0.02002963423728943,0.00423192186281085
1659027025932285400,0.351285400390625,-0.006197929382324219,-0.010439634323120117,0.0064064315520226955
1659027025941955300,0.360955322265625,-0.0059986114501953125,-0.016260504722595215,-0.005428585223853588
1659027025951625000,0.370625,-0.008133888244628906,-0.01379665732383728,-0.012132728472352028
1659027025961294600,0.380294677734375,-0.053214073181152344,0.0035254955291748047,-0.003407418727874756
1659027025970964500,0.389964599609375,-0.2075786590576172,-0.04031243920326233,0.01554219238460064
1659027025980634000,0.399634033203125,0.013408660888671875,-0.05043026804924011,0.0069658346474170685
1659027025990303700,0.4093037109375,0.21227359771728516,-0.02631092071533203,-0.009589566849172115
1659027025999973600,0.4189736328125,0.3164100646972656,0.05013611912727356,-0.015348147600889206
1659027026009643300,0.428643310546875,0.08802223205566406,0.06896662712097168,-0.02447161078453064
1659027026019313000,0.43831298828125,-0.07520484924316406,0.0825147032737732,-0.026303432881832123
1659027026028982800,0.447982666015625,-0.14114665985107422,0.0593295693397522,-0.025801461189985275
1659027026038652400,0.45765234375,-0.042038917541503906,0.03221243619918823,-0.055709950625896454
1659027026048322000,0.467322021484375,0.08168220520019531,0.02221110463142395,-0.06135847792029381
1659027026057992000,0.476991943359375,0.11963844299316406,-0.001594454050064087,-0.06936406344175339
1659027026067661600,0.48666162109375,-0.042138099670410156,-0.036672115325927734,-0.06920494884252548
1659027026077331200,0.496331298828125,-0.048264503479003906,-0.06290894746780396,-0.05026175454258919
1659027026087001000,0.5060009765625,0.07223129272460938,-0.035797566175460815,-0.03519108518958092
1659027026096670700,0.515670654296875,-0.0019121170043945312,-0.054821163415908813,-0.021644506603479385
1659027026106340400,0.52534033203125,-0.08042621612548828,-0.0362510085105896,-0.0013429904356598854
1659027026116010200,0.53501025390625,-0.034272193908691406,-0.0016664862632751465,0.003285004058852792
1659027026125679900,0.544679931640625,-0.0007543563842773438,0.019373208284378052,0.020672397688031197
1659027026135349500,0.554349609375,0.04034900665283203,0.038820862770080566,0.06247324496507645
1659027026145019400,0.564019287109375,0.01846790313720703,0.04039350152015686,0.061421092599630356
1659027026154689000,0.57368896484375,-0.0758371353149414,0.03132268786430359,0.06614052504301071
1659027026164358700,0.583358642578125,-0.03687477111816406,0.012938648462295532,0.048383764922618866
1659027026174028500,0.593028564453125,0.04017448425292969,-0.0037445127964019775,0.05216926336288452
1659027026183698200,0.6026982421875,0.0735788345336914,-0.018936961889266968,0.05123266205191612
1659027026193368000,0.6123681640625,-0.005291938781738281,-0.0551048219203949,0.056236233562231064
1659027026203037700,0.62203759765625,-0.05578804016113281,-0.050770968198776245,0.04240771383047104
1659027026212707300,0.631707275390625,-0.09484481811523438,-0.05738183856010437,0.028721656650304794
1659027026222377200,0.641377197265625,-0.09207344055175781,-0.033322662115097046,0.020029151812195778
1659027026232046800,0.651046875,-0.028171539306640625,-0.0026339590549468994,0.02092079445719719
1659027026241716500,0.660716552734375,0.03467082977294922,0.010902196168899536,0.020677028223872185
1659027026251386400,0.670386474609375,0.07057571411132812,0.029202789068222046,0.005057050380855799
1659027026261056000,0.680055908203125,0.07058525085449219,0.04137277603149414,-0.0021525491029024124
1659027026270726000,0.689725830078125,0.034119606018066406,0.027599751949310303,-0.017480038106441498
1659027026280395500,0.6993955078125,0.007674217224121094,0.024616092443466187,-0.027847107499837875
1659027026290065200,0.709065185546875,0.028725624084472656,0.028826206922531128,-0.04509839043021202
1659027026299735000,0.718735107421875,0.056481361389160156,0.007197469472885132,-0.06676895916461945
1659027026309404700,0.72840478515625,0.046126365661621094,0.0035762786865234375,-0.054015714675188065
1659027026319074300,0.73807421875,0.02064990997314453,-0.003485560417175293,-0.04962319880723953
1659027026328744200,0.747744140625,-0.011456489562988281,-0.015249252319335938,-0.054715655744075775
1659027026338413800,0.757413818359375,-0.014797210693359375,-0.01729142665863037,-0.04672427847981453
1659027026348083500,0.76708349609375,-0.021608352661132812,-0.0335024893283844,-0.03774740546941757
1659027026357753300,0.77675341796875,-0.028308868408203125,-0.015240460634231567,-0.018361253663897514
1659027026367423000,0.786423095703125,-0.007833480834960938,-0.015100419521331787,-0.012212789617478848
1659027026377092900,0.7960927734375,-0.007695198059082031,-0.02448815107345581,-0.006193392910063267
1659027026386762500,0.805762451171875,0.005381584167480469,-0.01489594578742981,-0.012067458592355251
1659027026396432100,0.81543212890625,-0.013524055480957031,-0.0007576942443847656,0.004536840133368969
1659027026406102000,0.82510205078125,0.004353523254394531,-0.01853451132774353,0.023190747946500778
1659027026415771600,0.834771728515625,0.0019350051879882812,-0.01374739408493042,0.014529029838740826
1659027026425441300,0.844441162109375,0.036026954650878906,0.006310880184173584,0.024865470826625824
1659027026435111200,0.854111083984375,0.013079643249511719,-0.005729794502258301,0.020883552730083466
1659027026444780800,0.86378076171875,-0.005959510803222656,0.0025438666343688965,0.026352254673838615
1659027026454450400,0.873450439453125,-0.023500442504882812,0.0022737979888916016,0.030609285458922386
1659027026464120000,0.8831201171875,-0.0195770263671875,-0.0013790726661682129,0.037122633308172226
1659027026473790000,0.8927900390625,0.00193023681640625,-0.0014700591564178467,0.03649519383907318
1659027026483459600,0.90245947265625,-0.0051555633544921875,0.007823735475540161,0.04176148399710655
1659027026493129200,0.912129150390625,0.0019969940185546875,-0.007828474044799805,0.039879340678453445
1659027026502799000,0.921799072265625,-0.0003833770751953125,-0.009045302867889404,0.01441478356719017
1659027026512468700,0.93146875,0.024335861206054688,-0.003239840269088745,-0.00356929749250412
1659027026522138400,0.941138427734375,0.005114555358886719,-0.0069428980350494385,0.0011295718140900135
1659027026531808300,0.950808349609375,-0.007905006408691406,-0.02705487608909607,-0.02018817514181137
1659027026541478000,0.960477783203125,-0.0230560302734375,-0.0069453418254852295,-0.014035852625966072
1659027026551147500,0.9701474609375,-0.008543968200683594,-0.017702341079711914,-0.025633133947849274
1659027026560817400,0.9798173828125,0.0021953582763671875,-0.020044803619384766,-0.031096074730157852
1659027026570487000,0.989487060546875,0.012753486633300781,-0.010498195886611938,-0.028206082060933113
1659027026580157000,0.999156982421875,0.016077041625976562,-0.0058450400829315186,-0.031301625072956085
1659027026589826600,1.00882666015625,0.008761405944824219,-0.0037076473236083984,-0.033170029520988464
1659027026599496200,1.01849609375,0.009796142578125,-0.007317662239074707,-0.018562357872724533
1659027026609166000,1.028166015625,0.010815620422363281,0.007899194955825806,-0.024144064635038376
1659027026618835700,1.037835693359375,0.0035829544067382812,-0.0018150806427001953,-0.010781696997582912
1659027026628505300,1.04750537109375,-0.0011768341064453125,0.007427692413330078,-0.016494926065206528
1659027026638175200,1.05717529296875,0.01767444610595703,0.004723310470581055,-0.008082414977252483
1659027026647844900,1.066844970703125,0.020914077758789062,-0.006114482879638672,0.003778004553169012
1659027026657514500,1.076514404296875,0.013512611389160156,-0.001477569341659546,-0.0011160647263750434
1659027026667184400,1.086184326171875,0.009761810302734375,-0.0015953779220581055,0.012952757067978382
1659027026676854000,1.09585400390625,-0.019806861877441406,-0.0029161274433135986,-0.0002423793775960803
1659027026686524000,1.10552392578125,-0.0018205642700195312,-0.0066530704498291016,-0.0002736346796154976
1659027026696193500,1.115193603515625,0.0040950775146484375,-0.004303246736526489,0.013752716593444347
1659027026705863200,1.12486328125,0.016969680786132812,-0.0019356906414031982,0.008779547177255154
1659027026715533000,1.134532958984375,0.01786518096923828,-0.006666451692581177,0.01921367272734642
1659027026725202700,1.14420263671875,0.01639270782470703,0.01459243893623352,0.009472958743572235
1659027026734872300,1.153872314453125,-0.0015230178833007812,0.009500890970230103,0.006954346317797899
1659027026744542200,1.163542236328125,-0.013257980346679688,-0.002564549446105957,0.02332504466176033
1659027026754211800,1.1732119140625,0.0046138763427734375,-0.00851815938949585,0.007603166624903679
1659027026763881500,1.182881591796875,0.012775421142578125,-0.014344096183776855,0.009789458476006985
1659027026773551400,1.19255126953125,0.009036064147949219,-0.03186613321304321,0.002501891227439046
1659027026783221000,1.202220947265625,0.0018329620361328125,-0.030329376459121704,-0.005784747190773487
1659027026792891000,1.211890869140625,-0.015842437744140625,-0.023998677730560303,-0.016372449696063995
1659027026802560500,1.221560546875,-0.013217926025390625,-0.02032548189163208,0.0003045089542865753
1659027026812230100,1.231230224609375,-0.011811256408691406,-0.015565425157546997,-0.006769961677491665
1659027026821900000,1.240900146484375,-0.0045452117919921875,-0.022677838802337646,-0.017311878502368927
1659027026831569700,1.250569580078125,0.0096588134765625,-0.003817826509475708,-0.015855595469474792
1659027026841239300,1.2602392578125,0.004801750183105469,-0.020509392023086548,-0.007391337305307388
1659027026850909200,1.2699091796875,0.008261680603027344,0.003048807382583618,-0.0037474539130926132
1659027026860578800,1.279578857421875,0.010483741760253906,-0.0019071400165557861,-0.00010743318125605583
1659027026870248400,1.28924853515625,0.03031635284423828,0.013191014528274536,-0.0012926829513162374
1659027026879918300,1.29891845703125,0.02628803253173828,0.011623889207839966,-0.011900239624083042
1659027026889588000,1.308587890625,0.03526592254638672,0.021875977516174316,-0.0011242326581850648
1659027026899257600,1.318257568359375,0.027622222900390625,0.0014257729053497314,-0.01646706648170948
1659027026908927500,1.327927490234375,0.009514808654785156,-0.008009999990463257,-0.010377712547779083
1659027026918597000,1.33759716796875,-0.0024089813232421875,-0.0019944310188293457,-0.011389932595193386
1659027026928266800,1.347266845703125,-0.018837928771972656,-0.013754576444625854,-0.024150924757122993
1659027026937936400,1.356936279296875,-0.01734447479248047,-0.006552070379257202,-0.014317844063043594
1659027026947606300,1.366606201171875,-0.009987831115722656,-0.029052019119262695,-0.0010917249601334333
1659027026957276000,1.37627587890625,-0.016875267028808594,-0.028738707304000854,0.00244717113673687
1659027026966945500,1.385945556640625,-0.015413284301757812,-0.022491395473480225,0.010604530572891235
1659027026976615400,1.395615478515625,-0.0033864974975585938,-0.017553091049194336,0.012743579223752022
1659027026986285000,1.40528515625,-0.006855010986328125,-0.0244617760181427,0.010111729614436626
1659027026995955000,1.414954833984375,-0.0032052993774414062,-0.0019004344940185547,0.02287566475570202
1659027027005624600,1.42462451171875,0.0027370452880859375,-0.0008915960788726807,0.0013357901480048895
1659027027015294200,1.434294189453125,0.00034618377685546875,-0.0011329054832458496,0.015450901351869106
1659027027024964000,1.443964111328125,-0.020826339721679688,-0.00489962100982666,0.0128023661673069
1659027027034633700,1.4536337890625,0.0077648162841796875,-0.00745546817779541,0.019665682688355446
1659027027044303400,1.463303466796875,0.013525962829589844,-0.018175631761550903,0.006388028152287006
1659027027053973200,1.47297314453125,0.026247024536132812,-0.010956346988677979,-0.0007566141430288553
1659027027063643000,1.482642822265625,0.0011091232299804688,-0.008563220500946045,0.006305180490016937
1659027027073312500,1.4923125,-0.008314132690429688,-0.008676737546920776,0.0003383907023817301
1659027027082982400,1.501982421875,-0.025814056396484375,-0.018171578645706177,-0.0032356695737689734
1659027027092652000,1.511652099609375,-0.006554603576660156,-0.020364105701446533,-0.0019883341155946255
1659027027102322000,1.521322021484375,0.010030746459960938,-0.026077955961227417,-0.006698227487504482
1659027027111991600,1.530991455078125,0.01810455322265625,-0.0187838077545166,-0.003039312083274126
1659027027121661200,1.5406611328125,0.02721881866455078,-0.011525899171829224,0.0017075843643397093
1659027027131331000,1.5503310546875,0.005595207214355469,-0.016239017248153687,-0.01723751425743103
1659027027141000700,1.560000732421875,-0.016845703125,0.013272523880004883,-0.01825009100139141
1659027027150670300,1.56967041015625,-0.009497642517089844,0.010442107915878296,-0.012129154056310654
1659027027160340200,1.57934033203125,0.010666847229003906,-0.012255728244781494,-0.024877827614545822
1659027027170009900,1.589009765625,0.036377906799316406,0.0030432939529418945,-0.02797102741897106
1659027027179679700,1.5986796875,0.05459308624267578,-0.006362557411193848,-0.03328215703368187
1659027027189349400,1.608349365234375,0.020743370056152344,0.008980482816696167,-0.03156062588095665
1659027027199019000,1.61801904296875,-0.05136299133300781,-0.006605774164199829,-0.015806090086698532
1659027027208689000,1.62768896484375,0.00008106231689453125,-0.02058511972427368,0.004451430402696133
1659027027218358500,1.637358642578125,0.049495697021484375,-0.02506193518638611,0.017280338332057
1659027027228028200,1.647028076171875,0.009847640991210938,-0.03526115417480469,0.01448660809546709
1659027027237698000,1.656697998046875,-0.09148502349853516,-0.033753275871276855,0.015296366065740585
1659027027247367700,1.66636767578125,-0.07465648651123047,-0.02991744875907898,0.0032964341808110476
1659027027257037300,1.676037353515625,0.0501251220703125,-0.028498530387878418,0.009170149452984333
1659027027266707200,1.685707275390625,0.048119544982910156,-0.011752218008041382,-0.0016668073367327452
1659027027276376800,1.695376953125,-0.029145240783691406,-0.007078230381011963,0.021853232756257057
1659027027286046700,1.705046630859375,-0.04158782958984375,-0.0038292407989501953,0.014478340744972229
1659027027295716400,1.71471630859375,0.015583038330078125,-0.0027882754802703857,0.01663905382156372
1659027027305386000,1.724385986328125,0.078857421875,0.0006166994571685791,-0.002384285442531109
1659027027315055900,1.734055908203125,0.05989837646484375,0.014638513326644897,0.0035566031001508236
1659027027324725500,1.7437255859375,-0.005802154541015625,0.0013677775859832764,0.0034032780677080154
1659027027334395100,1.75339501953125,-0.03040790557861328,0.010614275932312012,0.007985910400748253
1659027027344065000,1.76306494140625,0.023039817810058594,-0.007181525230407715,-0.011006026528775692
1659027027353734700,1.772734619140625,0.036773681640625,-0.001208186149597168,-0.01198212243616581
1659027027363404300,1.782404296875,0.018517494201660156,-0.020125597715377808,-0.01064496673643589
1659027027373074200,1.79207421875,-0.002964019775390625,-0.018699318170547485,-0.024709558114409447
1659027027382743800,1.801743896484375,-0.011143684387207031,-0.027998775243759155,-0.010275986976921558
1659027027392413700,1.81141357421875,-0.012128829956054688,-0.03943935036659241,-0.02779080532491207
1659027027402083300,1.821083251953125,-0.01662445068359375,-0.042596131563186646,-0.006158944219350815
1659027027411753000,1.8307529296875,-0.02222442626953125,-0.01614627242088318,-0.018977761268615723
1659027027421422800,1.8404228515625,0.008737564086914062,-0.000668644905090332,-0.024466298520565033
1659027027431092500,1.850092529296875,0.039183616638183594,0.006287276744842529,-0.02989087998867035
1659027027440762000,1.85976220703125,0.02441692352294922,0.010745912790298462,-0.024723058566451073
1659027027450432000,1.869431884765625,-0.000690460205078125,0.001012563705444336,0.00624099699780345
1659027027460101600,1.8791015625,-0.014790534973144531,0.0031777024269104004,0.0026272886898368597
1659027027469771300,1.888771240234375,0.010164260864257812,0.004187196493148804,-0.0032240943983197212
1659027027479441200,1.898441162109375,0.052351951599121094,0.0028553009033203125,0.0003494064440019429
1659027027489110800,1.90811083984375,0.051482200622558594,0.00036919116973876953,0.0014801055658608675
1659027027498780700,1.91778076171875,-0.0023136138916015625,-0.0091627836227417,0.019005650654435158
1659027027508450300,1.9274501953125,-0.04344940185546875,-0.022008389234542847,0.024477172642946243
1659027027518120000,1.937119873046875,-0.028606414794921875,-0.016992837190628052,-0.0030277124606072903
1659027027527789800,1.946789794921875,-0.006945610046386719,-0.018113911151885986,0.013513069599866867
1659027027537459500,1.95645947265625,0.001415252685546875,-0.0287134051322937,0.0003948375233449042
1659027027547129000,1.966129150390625,0.004929542541503906,-0.030872493982315063,0.000521763286087662
1659027027556799000,1.975799072265625,-0.0057353973388671875,-0.01873573660850525,-0.007699738256633282
1659027027566468600,1.985468505859375,-0.010338783264160156,-0.0009757876396179199,0.012447395361959934
1659027027576138200,1.99513818359375,0.014545440673828125,0.008224427700042725,-0.007710056379437447
1659027027585808100,2.00480810546875,0.04372119903564453,0.02085760235786438,-0.011119693517684937
1659027027595477800,2.014477783203125,0.04887866973876953,0.02154397964477539,0.0019962426740676165
1659027027605147600,2.024147705078125,0.018651962280273438,-0.0011398494243621826,-0.006281973794102669
1659027027614817300,2.0338173828125,-0.01930522918701172,0.0023798346519470215,0.007846303284168243
1659027027624487000,2.04348681640625,-0.01898193359375,-0.020069897174835205,-0.017028460279107094
1659027027634156800,2.05315673828125,0.00015926361083984375,-0.008027851581573486,-0.00501896720379591
1659027027643826400,2.062826416015625,0.015451431274414062,-0.016129612922668457,-0.015647005289793015
1659027027653496000,2.07249609375,0.003429412841796875,-0.027654170989990234,-0.01539679802954197
1659027027663166000,2.082166015625,-0.023681640625,-0.022629916667938232,-0.022237112745642662
1659027027672835600,2.091835693359375,-0.039752960205078125,-0.022366821765899658,-0.019578253850340843
1659027027682505500,2.10150537109375,-0.026144981384277344,-0.03034341335296631,-0.003937180619686842
1659027027692175000,2.111175048828125,-0.011587142944335938,-0.029980182647705078,-0.0003793225041590631
1659027027701844700,2.1208447265625,0.009786605834960938,-0.014328867197036743,0.004296628758311272
1659027027711514600,2.1305146484375,0.026102066040039062,0.002152740955352783,0.004130026325583458
1659027027721184300,2.140184326171875,0.0197906494140625,0.0007410049438476562,0.01579056866466999
1659027027730854000,2.14985400390625,0.013586044311523438,0.01932433247566223,0.0036667624954134226
1659027027740523800,2.159523681640625,0.0027761459350585938,0.00947648286819458,0.027097895741462708
1659027027750193400,2.169193359375,0.0062618255615234375,0.009261399507522583,0.011256217025220394
1659027027759863000,2.178863037109375,0.009692192077636719,-0.01576980948448181,0.012178536504507065
1659027027769533000,2.188532958984375,0.010709762573242188,-0.0049758851528167725,-0.0009743465343490243
1659027027779202600,2.19820263671875,-0.0047607421875,-0.004950106143951416,0.01782733015716076
1659027027788872400,2.20787255859375,-0.015265464782714844,-0.01324540376663208,0.022227365523576736
1659027027798542000,2.2175419921875,-0.01148223876953125,-0.011848419904708862,0.0124354911968112
1659027027808211700,2.227211669921875,-0.006577491760253906,-0.00949743390083313,-0.0030746180564165115
1659027027817881600,2.236881591796875,0.00295257568359375,-0.02488955855369568,0.005146300420165062
1659027027827551200,2.24655126953125,-0.0041484832763671875,-0.01058495044708252,0.0073469229973852634
1659027027837220900,2.256220947265625,-0.013483047485351562,-0.023549139499664307,0.00018629408441483974
1659027027846890800,2.265890869140625,-0.0014896392822265625,-0.013887375593185425,0.007232365198433399
1659027027856560400,2.275560302734375,-0.0038118362426757812,-0.00676804780960083,0.0023962901905179024
1659027027866230000,2.28522998046875,-0.0060939788818359375,-0.0033536553382873535,-0.004769020713865757
1659027027875900000,2.29489990234375,0.005779266357421875,-0.0035256147384643555,-0.0011963731376454234
1659027027885569500,2.304569580078125,-0.0013685226440429688,-0.0001652538776397705,-0.02006744220852852
1659027027895239400,2.314239501953125,-0.004868507385253906,-0.007420748472213745,0.0014054002240300179
1659027027904909000,2.323908935546875,0.014040946960449219,-0.02158564329147339,-0.013920871540904045
1659027027914578700,2.33357861328125,0.017342567443847656,0.0033375322818756104,-0.013698507100343704
1659027027924248600,2.34324853515625,0.03117656707763672,0.004287421703338623,-0.014739813283085823
1659027027933918200,2.352918212890625,0.00948333740234375,-0.001752018928527832,-0.018090112134814262
1659027027943587800,2.362587890625,0.011679649353027344,-0.013573169708251953,-0.013118048198521137
1659027027953257700,2.3722578125,0.0067806243896484375,-0.027521729469299316,-0.02002386748790741
1659027027962927400,2.38192724609375,0.0007867813110351562,-0.014150559902191162,-0.018637124449014664
1659027027972597000,2.391596923828125,0.0066585540771484375,-0.014000356197357178,-0.019570454955101013
1659027027982267000,2.401266845703125,0.0018405914306640625,-0.004327058792114258,-0.01810498908162117
1659027027991936500,2.4109365234375,-0.0005388259887695312,-0.010251343250274658,-0.016722701489925385
1659027028001606400,2.4206064453125,-0.011114120483398438,-0.012547492980957031,-0.012953604571521282
1659027028011276000,2.430276123046875,-0.010922431945800781,-0.00900837779045105,-0.0045414394699037075
1659027028020945700,2.439945556640625,-0.00014495849609375,0.0038835108280181885,-0.0021206133533269167
1659027028030615600,2.449615478515625,0.0010404586791992188,-0.008145302534103394,-0.011447940953075886
1659027028040285200,2.45928515625,-0.004853248596191406,-0.0011501610279083252,-0.024179527536034584
1659027028049954800,2.468954833984375,0.0034694671630859375,-0.007212728261947632,-0.006111591123044491
1659027028059624700,2.478624755859375,0.0010623931884765625,-0.003648698329925537,0.023365793749690056
1659027028069294300,2.48829443359375,0.009289741516113281,-0.020371735095977783,0.006497967056930065
1659027028078964200,2.497964111328125,0.002079010009765625,-0.01658836007118225,0.006352489814162254
1659027028088633900,2.5076337890625,-0.023833274841308594,-0.010572046041488647,0.02027018740773201
1659027028098303500,2.517303466796875,0.016567230224609375,-0.02106967568397522,0.02457168512046337
1659027028107973400,2.526973388671875,0.02688121795654297,-0.018422722816467285,0.012385022826492786
1659027028117643000,2.53664306640625,-0.006504058837890625,-0.021759122610092163,0.016789479181170464
1659027028127312600,2.546312744140625,-0.022857666015625,-0.007535159587860107,0.021119609475135803
1659027028136982500,2.555982421875,-0.015408515930175781,-0.01122373342514038,0.016108980402350426
1659027028146652200,2.565652099609375,-0.021024703979492188,-0.008968502283096313,0.004123033490031958
1659027028156322000,2.575322021484375,0.024042129516601562,0.003837406635284424,0.02054370939731598
1659027028165991700,2.58499169921875,0.015412330627441406,0.00004464387893676758,0.01789839193224907
1659027028175661300,2.594661376953125,0.013983726501464844,-0.004804521799087524,0.008151140064001083
1659027028185331200,2.604331298828125,0.019641876220703125,-0.007362157106399536,-0.0002856398932635784
1659027028195000800,2.614000732421875,0.0169677734375,0.004325836896896362,0.006740769371390343
1659027028204670700,2.623670654296875,0.01668834686279297,0.004139721393585205,-0.0004143782425671816
1659027028214340400,2.63334033203125,0.008180618286132812,-0.012570828199386597,-0.014536627568304539
1659027028224010200,2.64301025390625,0.012754440307617188,-0.017209738492965698,-0.011951985768973827
1659027028233680000,2.652679931640625,0.0007801055908203125,-0.02406737208366394,-0.021288026124238968
1659027028243349500,2.662349609375,-0.00157928466796875,-0.02974802255630493,-0.01041062269359827
1659027028253019400,2.672019287109375,-0.009783744812011719,-0.028189867734909058,-0.023159492760896683
1659027028262689000,2.68168896484375,-0.040198326110839844,-0.01512056589126587,-0.02272624522447586
1659027028272359000,2.69135888671875,-0.04657554626464844,-0.01759159564971924,-0.026976730674505234
1659027028282028500,2.701028564453125,-0.02696514129638672,-0.012934178113937378,-0.025301549583673477
1659027028291698200,2.7106982421875,0.026436805725097656,-0.014236688613891602,-0.014215921983122826
1659027028301368000,2.7203681640625,0.029534339904785156,-0.013079285621643066,0.0072741140611469746
1659027028311037700,2.73003759765625,0.03493309020996094,-0.006058752536773682,0.000027498506824485958
1659027028320707300,2.739707275390625,0.036708831787109375,-0.0049238502979278564,0.02813795581459999
1659027028330377200,2.749377197265625,0.005512237548828125,-0.013191163539886475,0.007631800137460232
1659027028340046800,2.759046875,-0.005160331726074219,-0.0026109814643859863,0.014525323174893856
1659027028349716500,2.768716552734375,0.0008106231689453125,-0.0038010776042938232,0.010742317885160446
1659027028359386400,2.778386474609375,-0.0050792694091796875,-0.012143999338150024,0.016348769888281822
1659027028369056000,2.788055908203125,0.0008916854858398438,0.007915854454040527,0.011246008798480034
1659027028378726000,2.797725830078125,0.005587577819824219,0.007641404867172241,0.01452142745256424
1659027028388395500,2.8073955078125,-0.006267547607421875,-0.009070605039596558,0.016648370772600174
1659027028398065200,2.817065185546875,-0.015565872192382812,-0.02211695909500122,0.014036759734153748
1659027028407735000,2.826735107421875,-0.03647613525390625,-0.012536048889160156,0.011469601653516293
1659027028417404700,2.83640478515625,-0.013509750366210938,-0.01249811053276062,0.004210891202092171
1659027028427074300,2.84607421875,-0.0026884078979492188,-0.014870643615722656,0.0005456707440316677
1659027028436744200,2.855744140625,0.010306358337402344,0.00512087345123291,-0.0017672604881227016
1659027028446413800,2.865413818359375,0.04073047637939453,0.0001017451286315918,0.0006330115720629692
1659027028456083700,2.875083740234375,0.037703514099121094,0.0022819936275482178,-0.012441257946193218
1659027028465753300,2.88475341796875,0.027667999267578125,0.0009249746799468994,-0.02059360034763813
1659027028475423000,2.894423095703125,0.03191661834716797,-0.014498680830001831,-0.016786593943834305
1659027028485092900,2.9040927734375,0.009033203125,-0.007255375385284424,-0.02360282465815544
1659027028494762500,2.913762451171875,-0.01111602783203125,-0.027163207530975342,-0.02210047096014023
1659027028504432400,2.923432373046875,-0.006221771240234375,-0.015002936124801636,-0.028829066082835197
1659027028514102000,2.93310205078125,-0.011994361877441406,0.006195634603500366,-0.02726806327700615
1659027028523772000,2.94277197265625,-0.007082939147949219,-0.014050155878067017,-0.044583216309547424
1659027028533441500,2.952441650390625,-0.009309768676757812,-0.03054293990135193,-0.019200831651687622
1659027028543111200,2.962111083984375,-0.015027046203613281,-0.03267166018486023,-0.023653268814086914
1659027028552781000,2.971781005859375,-0.0030069351196289062,-0.0170324444770813,-0.02211790531873703
1659027028562450700,2.98145068359375,0.013519287109375,-0.015714675188064575,0.009977338835597038
1659027028572120600,2.99112060546875,0.0321197509765625,0.0009321868419647217,0.01212588232010603
1659027028581790200,3.000790283203125,0.02570343017578125,0.01382911205291748,0.004742399789392948
1659027028591459800,3.0104599609375,0.009982109069824219,0.015894442796707153,0.0068634264171123505
1659027028601129700,3.020129638671875,0.02040386199951172,0.02151164412498474,0.016036387532949448
1659027028610799400,3.02979931640625,0.00006389617919921875,0.011741071939468384,0.01452514249831438
1659027028620469000,3.039468994140625,-0.0022869110107421875,-0.0002765059471130371,0.041247788816690445
1659027028630139000,3.049138916015625,-0.008131027221679688,-0.0002721548080444336,0.02878410741686821
1659027028639808500,3.05880859375,-0.020934104919433594,-0.02856007218360901,0.027061330154538155
1659027028649478400,3.068478515625,-0.03588294982910156,-0.020940124988555908,0.011221153661608696
1659027028659148000,3.07814794921875,-0.011751174926757812,-0.03838068246841431,0.018052075058221817
1659027028668817700,3.087817626953125,0.0013933181762695312,-0.027380675077438354,0.025975925847887993
1659027028678487600,3.097487548828125,-0.012742042541503906,-0.04003649950027466,0.007856892421841621
1659027028688157200,3.1071572265625,-0.017225265502929688,-0.046741336584091187,0.0006556189619004726
1659027028697827000,3.1168271484375,-0.029870033264160156,-0.022717714309692383,0.002902612555772066
1659027028707496700,3.12649658203125,-0.024659156799316406,-0.009625792503356934,-0.011388729326426983
1659027028717166600,3.13616650390625,-0.005415916442871094,0.0055724382400512695,-0.007652548141777515
1659027028726836200,3.145836181640625,0.00527191162109375,-0.0006875693798065186,-0.025125743821263313
1659027028736505900,3.155505859375,0.028718948364257812,0.013270586729049683,-0.027042046189308167
1659027028746175700,3.16517578125,0.02471637725830078,0.008172541856765747,-0.037247996777296066
1659027028755845400,3.174845458984375,0.02548694610595703,0.00318792462348938,-0.03311113640666008
1659027028765515300,3.184515380859375,0.02741718292236328,0.0030491650104522705,-0.03262677043676376
1659027028775185000,3.194184814453125,0.004611015319824219,-0.008880436420440674,-0.027385834604501724
1659027028784854500,3.2038544921875,-0.0013418197631835938,-0.025373995304107666,-0.026936277747154236
1659027028794524400,3.2135244140625,0.011628150939941406,-0.01929667592048645,-0.02419818937778473
1659027028804194000,3.223194091796875,0.013792991638183594,-0.016764670610427856,-0.019153721630573273
1659027028813863700,3.23286376953125,0.0029745101928710938,-0.01177966594696045,-0.010581315495073795
1659027028823533600,3.242533447265625,-0.013543128967285156,-0.011668980121612549,-0.0034127063117921352
1659027028833203200,3.252203125,0.004334449768066406,0.0025006234645843506,-0.004597946535795927
1659027028842873000,3.261873046875,-0.006321907043457031,0.009375244379043579,-0.0010309377685189247
1659027028852542700,3.271542724609375,-0.001506805419921875,-0.00969022512435913,-0.0033772760070860386
1659027028862212600,3.281212646484375,-0.008538246154785156,-0.013143748044967651,0.004848663695156574
1659027028871882200,3.29088232421875,-0.013093948364257812,-0.003740847110748291,0.011787643656134605
1659027028881552000,3.3005517578125,0.007126808166503906,-0.010822951793670654,0.015084336511790752
1659027028891221800,3.3102216796875,0.03524303436279297,-0.017673224210739136,0.018268242478370667
1659027028900891400,3.319891357421875,0.025241851806640625,-0.014997541904449463,0.013219773769378662
1659027028910561300,3.329561279296875,0.0001163482666015625,-0.01007041335105896,0.015259193256497383
1659027028920231000,3.33923095703125,-0.028118133544921875,-0.009959757328033447,0.010175490751862526
1659027028929900500,3.348900634765625,-0.02293872833251953,-0.011112749576568604,0.019436471164226532
1659027028939570400,3.3585703125,-0.040198326110839844,-0.0158044695854187,0.02145673707127571
1659027028949240000,3.368239990234375,-0.008930206298828125,-0.02759060263633728,0.010500309057533741
1659027028958910000,3.377909912109375,-0.004069328308105469,-0.024977266788482666,0.009081345982849598
1659027028968579600,3.38757958984375,-0.00046253204345703125,-0.03308108448982239,0.010096805170178413
1659027028978249200,3.397249267578125,0.010140419006347656,-0.012757629156112671,-0.008874374441802502
1659027028987919000,3.406919189453125,0.005275726318359375,-0.0022700130939483643,-0.005207632668316364
1659027028997588700,3.416588623046875,-0.005389213562011719,-0.011957257986068726,-0.007568804547190666
1659027029007258600,3.426258544921875,-0.0064697265625,-0.011985868215560913,-0.008657240308821201
1659027029016928300,3.43592822265625,0.0018815994262695312,0.003280162811279297,-0.01675882749259472
1659027029026598100,3.44559814453125,-0.0028467178344726562,-0.011148542165756226,-0.016517624258995056
1659027029036267800,3.455267822265625,0.006619453430175781,0.012338787317276001,-0.011544255539774895
1659027029045937400,3.4649375,0.008871078491210938,-0.005770266056060791,-0.024302687495946884
1659027029055607300,3.474607177734375,0.029905319213867188,0.0024186372756958008,-0.023993587121367455
1659027029065277000,3.48427685546875,0.04117107391357422,0.005879014730453491,-0.014308181591331959
1659027029074946800,3.49394677734375,0.046367645263671875,0.00813370943069458,-0.024755757302045822
1659027029084616400,3.503616455078125,0.012655258178710938,0.0020586252212524414,-0.018499847501516342
1659027029094286000,3.5132861328125,0.0006818771362304688,-0.0050916969776153564,-0.02417168952524662
1659027029103956000,3.5229560546875,-0.009915351867675781,-0.010974794626235962,-0.030810697004199028
1659027029113625600,3.53262548828125,-0.02621746063232422,-0.02620011568069458,-0.00795573927462101
1659027029123295200,3.542295166015625,-0.04694938659667969,-0.02360999584197998,-0.01253775879740715
1659027029132965000,3.551965087890625,-0.033219337463378906,-0.022267967462539673,-0.02054251916706562
1659027029142634800,3.561634765625,0.010873794555664062,-0.02335810661315918,-0.004886293783783913
1659027029152304600,3.5713046875,0.02599334716796875,-0.012608468532562256,0.009275609627366066
1659027029161974300,3.580974365234375,0.02321147918701172,-0.013717353343963623,0.015023097395896912
1659027029171644200,3.59064404296875,0.018121719360351562,-0.01710379123687744,0.0017915694043040276
1659027029181313800,3.600313720703125,-0.006882667541503906,-0.006316095590591431,0.018164807930588722
1659027029190983700,3.609983642578125,-0.011467933654785156,-0.007558315992355347,0.014237608760595322
1659027029200653300,3.6196533203125,-0.011275291442871094,-0.012223869562149048,0.013934663496911526
1659027029210323000,3.629322998046875,-0.007550239562988281,0.00186958909034729,0.02080942876636982
1659027029219992800,3.638992919921875,0.0031690597534179688,0.004048794507980347,0.0216028094291687
1659027029229662500,3.648662353515625,0.025475502014160156,0.004958361387252808,0.018851706758141518
1659027029239332000,3.65833203125,0.012116432189941406,-0.00826495885848999,0.012701494619250298
1659027029249002000,3.668001953125,-0.029259681701660156,-0.018801063299179077,0.02427332103252411
1659027029258671600,3.677671630859375,-0.027587890625,-0.025774508714675903,0.01685904897749424
1659027029268341500,3.687341552734375,0.011700630187988281,-0.02548748254776001,0.003599692601710558
1659027029278011100,3.69701123046875,0.03974437713623047,-0.015764981508255005,0.0057976096868515015
1659027029287681000,3.706680908203125,0.014380455017089844,0.007856160402297974,-0.00839786697179079
1659027029297350700,3.7163505859375,-0.022322654724121094,0.0016433298587799072,-0.004767528735101223
1659027029307020300,3.726020263671875,-0.026647567749023438,-0.006875753402709961,-0.018816301599144936
1659027029316690200,3.735690185546875,-0.00031375885009765625,0.0036276280879974365,-0.024394705891609192
1659027029326359800,3.74535986328125,0.04439830780029297,-0.011755645275115967,-0.018171418458223343
1659027029336029700,3.75502978515625,0.022484779357910156,-0.01755616068840027,-0.01913914456963539
1659027029345699300,3.76469921875,0.01740741729736328,-0.009113878011703491,-0.026001565158367157
1659027029355369200,3.774369140625,0.0077075958251953125,-0.009019166231155396,-0.010397587902843952
1659027029365038800,3.784038818359375,0.0040493011474609375,-0.01239854097366333,-0.00793885812163353
1659027029374708500,3.79370849609375,-0.026597976684570312,-0.011243432760238647,-0.014932875521481037
1659027029384378400,3.80337841796875,-0.02614879608154297,-0.014784932136535645,-0.005340650677680969
1659027029394048000,3.813048095703125,-0.019822120666503906,-0.02417817711830139,0.0006201372016221285
1659027029403718000,3.8227177734375,-0.000659942626953125,-0.009913980960845947,0.010015602223575115
1659027029413387500,3.832387451171875,0.004063606262207031,-0.02759528160095215,-0.004334630444645882
1659027029423057200,3.84205712890625,-0.008940696716308594,-0.002571970224380493,0.020377852022647858
1659027029432727000,3.85172705078125,-0.0005540847778320312,-0.015527456998825073,0.02000010572373867
1659027029442397000,3.86139697265625,0.0041637420654296875,0.002292722463607788,0.03724910318851471
1659027029452066600,3.871066650390625,-0.005312919616699219,-0.0002409815788269043,0.02367928996682167
1659027029461736200,3.880736083984375,0.006542205810546875,0.0044116973876953125,0.01498368103057146
1659027029471406000,3.890406005859375,0.014670372009277344,0.006605476140975952,0.0017831155564635992
1659027029481075700,3.90007568359375,0.005015373229980469,-0.010003924369812012,0.012303521856665611
1659027029490745300,3.909745361328125,0.0049343109130859375,-0.0016590654850006104,-0.006764114834368229
1659027029500415200,3.919415283203125,-0.021026611328125,-0.0005405843257904053,-0.012545236386358738
1659027029510084900,3.9290849609375,-0.021846771240234375,-0.012495726346969604,-0.01593398116528988
1659027029519754800,3.938754638671875,-0.0038290023803710938,-0.03251540660858154,-0.018061315640807152
1659027029529424400,3.94842431640625,0.02212238311767578,-0.02623361349105835,-0.025977712124586105
1659027029539094300,3.95809423828125,0.008814811706542969,-0.027058511972427368,-0.023259304463863373
1659027029548764000,3.967763916015625,-0.00308990478515625,-0.022129565477371216,-0.027672572061419487
1659027029558433800,3.977433837890625,-0.01950359344482422,-0.026609182357788086,-0.028455330058932304
1659027029568103400,3.987103515625,-0.035640716552734375,-0.01348087191581726,-0.026814263314008713
1659027029577773000,3.99677294921875,-0.022096633911132812,0.004134535789489746,-0.020464368164539337
1659027029587443000,4.00644287109375,0.005339622497558594,0.014369040727615356,-0.015426145866513252
1659027029597112600,4.016112548828125,0.022909164428710938,-0.0038592517375946045,-0.009354177862405777
1659027029606782200,4.0257822265625,0.046062469482421875,0.006593853235244751,-0.006855909246951342
1659027029616452000,4.0354521484375,0.04765033721923828,0.0017209053039550781,0.009662377648055553
1659027029626121700,4.045121826171875,-0.0037326812744140625,-0.0018374621868133545,0.009406297467648983
1659027029635791600,4.05479150390625,-0.0189666748046875,0.0017792284488677979,0.01271420530974865
1659027029645461200,4.064461181640625,-0.012768745422363281,0.0017777979373931885,0.013610350899398327
1659027029655131100,4.074131103515625,-0.012556076049804688,-0.01945701241493225,0.00037667626747861505
1659027029664800800,4.08380078125,-0.0146942138671875,-0.003981143236160278,0.016801955178380013
1659027029674470700,4.093470703125,-0.01444244384765625,-0.020584821701049805,0.008247589692473412
1659027029684140300,4.103140380859375,-0.013018608093261719,-0.01576375961303711,0.00454168114811182
1659027029693810000,4.112809814453125,-0.01867389678955078,-0.005197614431381226,0.006810195278376341
1659027029703479800,4.122479736328125,0.0016450881958007812,-0.023014426231384277,0.018479283899068832
1659027029713149400,4.1321494140625,-0.03249073028564453,-0.017004847526550293,0.006369393318891525
1659027029722819000,4.141819091796875,-0.014295578002929688,-0.011038541793823242,0.008636822924017906
1659027029732489000,4.151489013671875,-0.0069942474365234375,-0.01573142409324646,0.0037773363292217255
1659027029742158600,4.16115869140625,0.024893760681152344,-0.0039039552211761475,0.008409690111875534
1659027029751828500,4.170828369140625,-0.008455276489257812,-0.00521475076675415,0.0012285797856748104
1659027029761498000,4.180498046875,-0.025951385498046875,-0.0007352232933044434,-0.012863218784332275
1659027029771168000,4.19016796875,0.019194602966308594,-0.00683322548866272,-0.000837790546938777
1659027029780837600,4.199837646484375,0.04594135284423828,-0.004594296216964722,-0.011418025940656662
1659027029790507500,4.209507568359375,0.02047252655029297,-0.02227887511253357,-0.015943262726068497
1659027029800177200,4.21917724609375,-0.015156745910644531,-0.017401129007339478,-0.01568719558417797
1659027029809846800,4.2288466796875,-0.024309158325195312,-0.01728212833404541,-0.022464845329523087
1659027029819516700,4.2385166015625,0.007868766784667969,-0.02901512384414673,-0.024423647671937943
1659027029829186300,4.248186279296875,0.01950836181640625,-0.012260407209396362,-0.0239968653768301
1659027029838856200,4.257856201171875,-0.011394500732421875,-0.021781116724014282,-0.018869467079639435
1659027029848525800,4.26752587890625,-0.03119659423828125,-0.02285093069076538,-0.017445992678403854
1659027029858195700,4.27719580078125,-0.0212554931640625,-0.015696018934249878,-0.020666761323809624
1659027029867865300,4.286865234375,-0.004418373107910156,-0.00871729850769043,-0.01447991095483303
1659027029877535200,4.29653515625,0.00860595703125,-0.0241793692111969,-0.0036049308255314827
1659027029887204900,4.306204833984375,0.033172607421875,-0.016860097646713257,-0.00005446432624012232
1659027029896874500,4.31587451171875,0.010272979736328125,-0.0014843940734863281,0.01052410714328289
1659027029906544400,4.32554443359375,0.030107498168945312,0.01366347074508667,0.003281145356595516
1659027029916214000,4.335214111328125,0.02254962921142578,0.010997176170349121,0.003160814056172967
1659027029925884000,4.3448837890625,0.02453136444091797,-0.001093357801437378,0.016040585935115814
1659027029935553500,4.354553466796875,0.004122734069824219,0.014218747615814209,0.012205715291202068
1659027029945223400,4.364223388671875,0.0017042160034179688,0.006837308406829834,0.02255241386592388
1659027029954893000,4.37389306640625,0.0005006790161132812,0.0008122920989990234,0.029195401817560196
1659027029964563000,4.38356298828125,-0.013622283935546875,-0.008727103471755981,0.02628929913043976
1659027029974232600,4.393232666015625,-0.03456687927246094,-0.025223225355148315,0.01757773570716381
1659027029983902200,4.402902099609375,-0.05397987365722656,-0.040410250425338745,0.017274195328354836
1659027029993572000,4.412572021484375,-0.016600608825683594,-0.03649213910102844,0.012269830331206322
1659027030003241700,4.42224169921875,0.013094902038574219,-0.02787649631500244,-0.008000313304364681
1659027030012911600,4.43191162109375,0.01406097412109375,-0.019404500722885132,0.005124228075146675
1659027030022581200,4.441581298828125,-0.0038118362426757812,-0.028749197721481323,-0.006707087159156799
1659027030032251000,4.4512509765625,0.017434120178222656,-0.00023418664932250977,-0.013691317290067673
1659027030041920800,4.460920654296875,0.024209976196289062,0.003099679946899414,-0.01350308395922184
1659027030051590400,4.47059033203125,0.002635955810546875,0.016966193914413452,-0.00508084474131465
1659027030061260300,4.48026025390625,-0.004460334777832031,0.015307515859603882,-0.025005824863910675
1659027030070930000,4.489929931640625,0.005030632019042969,0.0031450986862182617,-0.021011462435126305
1659027030080599800,4.499599853515625,0.033186912536621094,0.004126638174057007,-0.026582662016153336
1659027030090269400,4.50926953125,0.01851940155029297,0.00514867901802063,-0.026291560381650925
1659027030099939300,4.518939208984375,0.012328147888183594,-0.0008197426795959473,-0.016535703092813492
1659027030109609000,4.52860888671875,-0.011404991149902344,-0.0032162070274353027,-0.013945276848971844
1659027030119278600,4.538278564453125,-0.012391090393066406,-0.016104042530059814,-0.005517522804439068
1659027030128948500,4.547948486328125,-0.02747821807861328,-0.028805553913116455,-0.016080373898148537
1659027030138618000,4.5576181640625,-0.015254020690917969,-0.013116955757141113,0.0029152208007872105
1659027030148288000,4.5672880859375,-0.005578041076660156,-0.02491942048072815,-0.012465600855648518
1659027030157957600,4.57695751953125,-0.004303932189941406,-0.023470163345336914,0.005381421186029911
1659027030167627500,4.58662744140625,-0.019521713256835938,-0.014986246824264526,0.007551496848464012
1659027030177297200,4.596297119140625,0.004337310791015625,0.00514945387840271,0.015593449585139751
1659027030186966800,4.605966796875,-0.01572704315185547,-0.005780935287475586,0.01997472532093525
1659027030196636700,4.61563671875,0.029247283935546875,0.0023797154426574707,0.005486053414642811
1659027030206306300,4.625306396484375,0.007588386535644531,-0.010772109031677246,0.014796736650168896
1659027030215976200,4.63497607421875,0.009821891784667969,0.006826579570770264,0.0039237746968865395
1659027030225645800,4.644645751953125,0.008486747741699219,-0.0016650259494781494,0.007349682971835136
1659027030235315700,4.654315673828125,-0.001064300537109375,-0.0016944408416748047,0.007131238933652639
1659027030244985300,4.6639853515625,-0.0010404586791992188,-0.012453854084014893,-0.0036148896906524897
1659027030254655200,4.6736552734375,-0.012784004211425781,-0.01827123761177063,-0.0036202813498675823
1659027030264324900,4.683324951171875,-0.01021575927734375,-0.03331795334815979,-0.0083608478307724
1659027030273994500,4.692994384765625,-0.008864402770996094,-0.029375791549682617,-0.005908515769988298
1659027030283664400,4.702664306640625,0.008935928344726562,-0.025499314069747925,-0.004670755937695503
1659027030293334000,4.712333984375,0.0017299652099609375,-0.027512937784194946,-0.010539988055825233
1659027030303004000,4.72200390625,0.0005273818969726562,-0.012993872165679932,-0.024576997384428978
1659027030312673500,4.731673583984375,-0.014771461486816406,-0.005804151296615601,-0.0018222464714199305
1659027030322343400,4.741343505859375,-0.007462501525878906,-0.0011440515518188477,0.0016140604857355356
1659027030332013000,4.751012939453125,0.01736927032470703,0.0070531368255615234,-0.002063886495307088
1659027030341683000,4.760682861328125,0.012375831604003906,0.013937264680862427,0.0002559655113145709
1659027030351352600,4.7703525390625,0.02158355712890625,0.01126641035079956,-0.0045785862021148205
1659027030361022200,4.780022216796875,0.020046234130859375,0.012283295392990112,0.003609536914154887
1659027030370692000,4.789692138671875,0.011474609375,0.002751946449279785,0.004628972616046667
1659027030380361700,4.79936181640625,0.008924484252929688,0.012288331985473633,0.004454945679754019
1659027030390031600,4.809031494140625,0.0028867721557617188,-0.001806706190109253,0.004286585375666618
1659027030399701200,4.818701171875,-0.008933067321777344,-0.02393057942390442,0.0029151784256100655
1659027030409371100,4.82837109375,-0.020551681518554688,-0.014006376266479492,0.0003616965841501951
1659027030419040800,4.838040771484375,-0.022562026977539062,-0.032625168561935425,0.0026989527978003025
1659027030428710700,4.847710693359375,-0.015123367309570312,-0.033371955156326294,-0.0009989299578592181
1659027030438380300,4.85738037109375,-0.023102760314941406,-0.016430795192718506,-0.0034017956349998713
1659027030448050000,4.8670498046875,-0.01918315887451172,-0.011593610048294067,0.0035911649465560913
1659027030457719800,4.8767197265625,-0.0023899078369140625,-0.013895809650421143,-0.0012411399511620402
1659027030467389400,4.886389404296875,0.0023603439331054688,-0.010277330875396729,-0.0012576512526720762
1659027030477059300,4.896059326171875,0.01997089385986328,-0.004309296607971191,-0.003685571253299713
1659027030486729000,4.90572900390625,0.0055255889892578125,-0.002027064561843872,-0.006072111427783966
1659027030496398800,4.91539892578125,-0.0016222000122070312,0.0061563849449157715,-0.0060668522492051125
1659027030506068500,4.925068359375,0.0007600784301757812,-0.0034436285495758057,-0.00603047339245677
1659027030515738400,4.93473828125,0.008981704711914062,-0.004534512758255005,-0.004791609477251768
1659027030525408000,4.944407958984375,0.014715194702148438,-0.01039847731590271,0.012898119166493416
1659027030535077600,4.95407763671875,0.009766578674316406,-0.018546074628829956,-0.007354975678026676
1659027030544747500,4.96374755859375,0.007252693176269531,-0.006529480218887329,-0.00020985258743166924
1659027030554417200,4.973417236328125,-0.008160591125488281,-0.013536632061004639,-0.015596427954733372
1659027030564087000,4.983087158203125,-0.010376930236816406,-0.014516204595565796,0.005744960159063339
1659027030573756700,4.992756591796875,-0.0031414031982421875,-0.016741305589675903,-0.009712401777505875
1659027030583426600,5.002426513671875,0.00162506103515625,-0.016718655824661255,-0.009618932381272316
1659027030593096200,5.01209619140625,-0.004281044006347656,-0.0035844743251800537,-0.006025148555636406
1659027030602766000,5.02176611328125,-0.010088920593261719,-0.00010940432548522949,-0.0012578772148117423
1659027030612435700,5.031435791015625,-0.0005044937133789062,-0.020221680402755737,-0.006008455529808998
1659027030622105300,5.041105224609375,-0.0028409957885742188,-0.018964529037475586,-0.008272746577858925
1659027030631775200,5.050775146484375,-0.005143165588378906,-0.008145838975906372,-0.010524101555347443
1659027030641444900,5.06044482421875,-0.0027017593383789062,-0.0010653436183929443,-0.0033573585096746683
1659027030651114800,5.07011474609375,-0.012064933776855469,-0.005867570638656616,-0.008045404218137264
1659027030660784600,5.07978466796875,0.015202522277832031,-0.022468239068984985,-0.015009171329438686
1659027030670454300,5.089454345703125,0.0020132064819335938,-0.001088261604309082,0.005145050585269928
1659027030680124000,5.0991240234375,-0.0027227401733398438,-0.008243024349212646,0.008523054420948029
1659027030689793800,5.108793701171875,-0.02149486541748047,-0.020041316747665405,0.00010850210674107075
1659027030699463400,5.11846337890625,-0.015245437622070312,-0.008198946714401245,-0.007016876712441444
1659027030709133000,5.128133056640625,-0.0055713653564453125,-0.007142156362533569,-0.0045860144309699535
1659027030718803000,5.137802978515625,-0.0042934417724609375,-0.02375003695487976,-0.0068152789026498795
1659027030728472800,5.147472900390625,0.005198478698730469,-0.0012576282024383545,0.009817061945796013
1659027030738142500,5.157142578125,0.008646965026855469,-0.01437726616859436,0.00723302224650979
1659027030747812000,5.16681201171875,-0.005606651306152344,-0.010836124420166016,0.0012222835794091225
1659027030757482000,5.17648193359375,0.0027294158935546875,-0.006206005811691284,-0.0011882290709763765
1659027030767151600,5.186151611328125,0.0015115737915039062,-0.0050401389598846436,-0.00826628040522337
1659027030776821500,5.195821533203125,0.012079238891601562,-0.002774149179458618,-0.0011077955132350326
1659027030786491100,5.2054912109375,0.00482177734375,-0.01807922124862671,-0.007009802386164665
1659027030796161000,5.2151611328125,0.0070972442626953125,-0.0061272382736206055,-0.002196748973801732
1659027030805830700,5.22483056640625,-0.005955696105957031,-0.006196111440658569,0.003684103721752763
1659027030815500500,5.23450048828125,-0.003498077392578125,-0.009793192148208618,-0.01641450636088848
1659027030825170200,5.244170166015625,0.004802703857421875,-0.016888201236724854,-0.007944663986563683
1659027030834839800,5.25383984375,-0.00115203857421875,-0.010980725288391113,-0.007850367575883865
1659027030844509700,5.263509765625,-0.014067649841308594,-0.009792208671569824,-0.01593603380024433
1659027030854179300,5.273179443359375,-0.007943153381347656,-0.002826511859893799,0.0018825288861989975
1659027030863849200,5.28284912109375,0.0051364898681640625,-0.010009229183197021,-0.004096852149814367
1659027030873518800,5.292518798828125,-0.006711006164550781,-0.00289762020111084,-0.0016852892003953457
1659027030883188700,5.302188720703125,0.003994941711425781,-0.010079145431518555,-0.018137456849217415
1659027030892858400,5.3118583984375,-0.000774383544921875,-0.009996771812438965,-0.021289795637130737
1659027030902528300,5.3215283203125,0.005129814147949219,-0.01832178235054016,-0.016210289672017097
1659027030912198000,5.331197998046875,-0.0020055770874023438,-0.005360037088394165,-0.005420274566859007
1659027030921867500,5.340867431640625,0.0027379989624023438,-0.0018838047981262207,0.0017183145973831415
1659027030931537400,5.350537353515625,0.007399559020996094,-0.017203718423843384,0.008738843724131584
1659027030941207000,5.36020703125,0.007279396057128906,-0.009915292263031006,0.00040789012564346194
1659027030950877000,5.369876953125,-0.00342559814453125,0.0006956756114959717,0.001541278907097876
1659027030960546800,5.379546875,0.0060443878173828125,0.0030083060264587402,0.009655867703258991
1659027030970216400,5.389216552734375,0.0071239471435546875,-0.0030382275581359863,-0.002393249422311783
1659027030979886000,5.398885986328125,0.004654884338378906,0.013397365808486938,0.0035193338990211487
1659027030989556000,5.408555908203125,-0.00130462646484375,-0.0057066380977630615,0.01633712649345398
1659027030999225600,5.4182255859375,-0.004809379577636719,-0.010403066873550415,-0.0004723228048533201
1659027031008895200,5.427895263671875,-0.007077217102050781,-0.0221368670463562,0.004176699556410313
1659027031018565000,5.437565185546875,-0.005779266357421875,-0.015999644994735718,-0.001812465488910675
1659027031028235000,5.447235107421875,-0.002147674560546875,-0.028845131397247314,-0.0006154468283057213
1659027031037904600,5.456904541015625,-0.0044574737548828125,-0.023857921361923218,-0.018261002376675606
1659027031047574500,5.466574462890625,0.013265609741210938,-0.023545891046524048,-0.017993852496147156
1659027031057244200,5.476244140625,-0.0034208297729492188,-0.010354816913604736,-0.005997639149427414
1659027031066913800,5.485913818359375,0.003696441650390625,-0.0055335164070129395,-0.007169173564761877
1659027031076583700,5.495583740234375,0.00598907470703125,0.005118221044540405,-0.002468193182721734
1659027031086253300,5.50525341796875,0.016480445861816406,-0.002139955759048462,-0.0036994642578065395
1659027031095923200,5.514923095703125,0.0032663345336914062,-0.004485994577407837,-0.01087428629398346
1659027031105592800,5.5245927734375,0.02909374237060547,-0.0008536279201507568,-0.010844984091818333
1659027031115262700,5.5342626953125,0.02860546112060547,-0.0031072497367858887,-0.004962281323969364
1659027031124932400,5.543932373046875,0.030477523803710938,0.008851289749145508,-0.017944253981113434
1659027031134602200,5.553602294921875,-0.019443511962890625,0.0005251169204711914,-0.022533312439918518
1659027031144272000,5.56327197265625,-0.03441619873046875,-0.007662296295166016,-0.018807847052812576
1659027031153941500,5.57294140625,-0.03972339630126953,-0.013445645570755005,-0.0127061503008008
1659027031163611400,5.582611328125,-0.02729511260986328,-0.026191413402557373,-0.004296290688216686
1659027031173281000,5.592281005859375,-0.02331066131591797,-0.021106183528900146,-0.012469648383557796
1659027031182951000,5.601950927734375,-0.018210411071777344,-0.020896941423416138,-0.0029441649094223976
1659027031192620500,5.61162060546875,0.0009212493896484375,-0.025368571281433105,0.00530208507552743
1659027031202290400,5.62129052734375,0.01855754852294922,-0.016852974891662598,0.004001852124929428
1659027031211960000,5.6309599609375,0.012366294860839844,-0.010746866464614868,-0.009042331948876381
1659027031221630000,5.6406298828125,-0.013718605041503906,-0.0071239471435546875,-0.004252315033227205
1659027031231299600,5.650299560546875,-0.03113269805908203,-0.0024133622646331787,0.007630504667758942
1659027031240969500,5.659969482421875,-0.017669677734375,-0.00010579824447631836,-0.0031523858197033405
1659027031250639000,5.66963916015625,-0.009135246276855469,0.009108304977416992,0.006243543233722448
1659027031260309000,5.67930908203125,0.009845733642578125,-0.0052751898765563965,0.013103297911584377
1659027031269978600,5.688978515625,0.014390945434570312,0.009992778301239014,0.015197011642158031
1659027031279648300,5.698648193359375,0.014151573181152344,0.00623968243598938,0.016080264002084732
1659027031289318100,5.708318115234375,-0.00490570068359375,-0.012745022773742676,0.021712493151426315
1659027031298987800,5.71798779296875,-0.02129077911376953,-0.019733965396881104,0.023692987859249115
1659027031308657700,5.72765771484375,-0.04210472106933594,-0.03257405757904053,0.012669023126363754
1659027031318327600,5.73732763671875,-0.04492378234863281,-0.02290409803390503,0.019505217671394348
1659027031327997200,5.7469970703125,-0.025339126586914062,-0.033480674028396606,0.00869600847363472
1659027031337666800,5.756666748046875,-0.0813751220703125,-0.02623385190963745,0.015684662386775017
1659027031347336700,5.766336669921875,-0.0117645263671875,-0.02995198965072632,0.008469429798424244
1659027031357006300,5.77600634765625,-0.06095695495605469,-0.03725132346153259,0.020283306017518044
1659027031366676000,5.785676025390625,0.015372276306152344,-0.021933794021606445,0.00007957941852509975
1659027031376345900,5.795345947265625,0.07395458221435547,0.00030100345611572266,0.014157808385789394
1659027031386015700,5.805015625,0.20801925659179688,0.027269214391708374,0.0032110917381942272
1659027031395685400,5.814685302734375,0.17395877838134766,0.05754494667053223,0.007682178635150194
1659027031405355300,5.824355224609375,0.060461997985839844,0.072164386510849,0.0014886255376040936
1659027031415025000,5.83402490234375,-0.1323108673095703,0.03804871439933777,-0.010396862402558327
1659027031424694500,5.843694580078125,-0.052455902099609375,0.02082991600036621,-0.01970651000738144
1659027031434364400,5.853364501953125,0.0048923492431640625,-0.029014617204666138,-0.041884783655405045
1659027031444034000,5.863033935546875,0.04128074645996094,-0.04617837071418762,-0.044839587062597275
1659027031453704000,5.872703857421875,0.06293869018554688,-0.04168042540550232,-0.02998335286974907
1659027031463373600,5.88237353515625,-0.03458213806152344,-0.05978110432624817,-0.04257768765091896
1659027031473043500,5.89204345703125,-0.1398773193359375,-0.07556864619255066,-0.010281922295689583
1659027031482713000,5.901713134765625,-0.08224296569824219,-0.06280077993869781,-0.020679105073213577
1659027031492382700,5.9113828125,-0.019682884216308594,-0.03744670748710632,-0.014347981661558151
1659027031502052600,5.921052490234375,-0.024048805236816406,-0.026575922966003418,-0.02117643505334854
1659027031511722500,5.930722412109375,-0.0012826919555664062,-0.004206955432891846,-0.023241182789206505
1659027031521392000,5.94039208984375,0.04698467254638672,0.04378533363342285,-0.01465754583477974
1659027031531062000,5.95006201171875,-0.012618064880371094,0.07703074812889099,-0.00021992591791786253
1659027031540731600,5.959731689453125,0.09582805633544922,0.056951552629470825,-0.0061376336961984634
1659027031550401300,5.9694013671875,0.033054351806640625,0.01835504174232483,-0.0213969387114048
1659027031560071200,5.9790712890625,0.10426139831542969,-0.001752018928527832,-0.014104047790169716
1659027031569740800,5.98874072265625,0.020163536071777344,-0.010935604572296143,-0.0010522016091272235
1659027031579410700,5.99841064453125,0.005702972412109375,-0.02343866229057312,-0.001043414231389761
1659027031589080300,6.008080322265625,-0.092041015625,-0.03007867932319641,0.007201433647423983
1659027031598750200,6.017750244140625,-0.1399097442626953,-0.04748079180717468,0.007130475249141455
1659027031608419800,6.027419921875,-0.1093292236328125,-0.04238206148147583,0.009413626976311207
1659027031618089700,6.03708984375,-0.005139350891113281,-0.05033785104751587,0.016333431005477905
1659027031627759400,6.04675927734375,0.010252952575683594,-0.03930908441543579,0.011431890539824963
1659027031637429000,6.056428955078125,0.027742385864257812,-0.026111185550689697,0.02417287789285183
1659027031647099000,6.066098876953125,0.007292747497558594,-0.01313328742980957,0.05311431735754013
1659027031656768800,6.075768798828125,0.01776885986328125,0.004447966814041138,0.04280492290854454
1659027031666438400,6.0854384765625,0.022187232971191406,0.03235289454460144,0.037318166345357895
1659027031676108000,6.09510791015625,0.013588905334472656,0.030437827110290527,0.026068026199936867
1659027031685778000,6.10477783203125,0.032187461853027344,0.04399096965789795,0.009183574467897415
1659027031695447600,6.114447509765625,0.06341552734375,0.035022228956222534,0.011400416493415833
1659027031705117400,6.124117431640625,0.08118057250976562,0.013318687677383423,0.013496791943907738
1659027031714787000,6.133787109375,0.026885032653808594,0.006094515323638916,0.002615205477923155
1659027031724457000,6.14345703125,-0.044152259826660156,-0.0375082790851593,-0.011670435778796673
1659027031734126600,6.153126708984375,-0.06812191009521484,-0.04158928990364075,-0.016332825645804405
1659027031743796500,6.16279638671875,-0.03286552429199219,-0.03748080134391785,-0.017360545694828033
1659027031753466000,6.172466064453125,-0.021722793579101562,-0.03590750694274902,-0.015959467738866806
1659027031763135700,6.1821357421875,-0.00135040283203125,-0.04618203639984131,-0.026262931525707245
1659027031772805600,6.1918056640625,-0.029554367065429688,-0.03863823413848877,-0.030570121482014656
1659027031782475500,6.2014755859375,-0.02199077606201172,-0.028924137353897095,-0.026539959013462067
1659027031792145200,6.211145263671875,0.01720905303955078,0.005362451076507568,-0.02381123974919319
1659027031801815000,6.22081494140625,0.05692863464355469,0.026250183582305908,-0.011773120611906052
1659027031811484700,6.230484619140625,0.11362457275390625,0.06472134590148926,-0.003465971676632762
1659027031821154300,6.240154296875,0.04584693908691406,0.05190613865852356,0.010728240013122559
1659027031830824200,6.24982421875,-0.04550457000732422,0.020452529191970825,0.003537860931828618
1659027031840493800,6.259493896484375,-0.08121490478515625,-0.004679828882217407,-0.008323010057210922
1659027031850163700,6.269163818359375,-0.01868152618408203,-0.023539453744888306,-0.003516516648232937
1659027031859833300,6.278833251953125,0.039279937744140625,-0.03264451026916504,-0.0022883457131683826
1659027031869503200,6.288503173828125,0.0468597412109375,-0.03913107514381409,0.000038003548979759216
1659027031879172900,6.2981728515625,0.022550582885742188,-0.03380170464515686,0.014145361259579659
1659027031888842800,6.3078427734375,-0.06252574920654297,-0.03223288059234619,0.0020792328286916018
1659027031898512400,6.317512451171875,-0.11088371276855469,-0.04027262330055237,-0.00746402982622385
1659027031908182300,6.327182373046875,-0.029023170471191406,-0.018823444843292236,0.008001725189387798
1659027031917852000,6.336851806640625,0.020882606506347656,-0.012912064790725708,0.016121532768011093
1659027031927521800,6.346521728515625,0.019367218017578125,-0.002421826124191284,0.01349023636430502
1659027031937191400,6.35619140625,0.02611255645751953,0.01618582010269165,0.007401828654110432
1659027031946861000,6.365861083984375,0.026857376098632812,0.019331425428390503,0.023767847567796707
1659027031956531000,6.375531005859375,0.029947280883789062,0.012899011373519897,0.01162579283118248
1659027031966200600,6.38520068359375,0.027097702026367188,-0.006253570318222046,0.018509646877646446
1659027031975870500,6.394870361328125,-0.008643150329589844,-0.021557539701461792,0.005308129824697971
1659027031985540400,6.404540283203125,-0.014377593994140625,-0.0048416852951049805,0.0192422978579998
1659027031995210000,6.4142099609375,0.0105743408203125,-0.015520215034484863,0.007205952890217304
1659027032004879600,6.423879638671875,0.012750625610351562,-0.03176087141036987,-0.011660164222121239
1659027032014549500,6.433549560546875,-0.034514427185058594,-0.026725083589553833,-0.002063722349703312
1659027032024219100,6.44321923828125,-0.04804706573486328,-0.019505590200424194,-0.0008625173941254616
1659027032033889000,6.452888916015625,-0.021355628967285156,-0.017055362462997437,-0.0008596270345151424
1659027032043559000,6.462558837890625,0.0025434494018554688,-0.014816641807556152,-0.003180368337780237
1659027032053228500,6.472228515625,0.014276504516601562,-0.019645631313323975,0.0039786966517567635
1659027032062898200,6.481898193359375,0.016401290893554688,-0.011367619037628174,0.0027253408916294575
1659027032072568000,6.491568115234375,0.013787269592285156,-0.005665898323059082,-0.015007082372903824
1659027032082237700,6.50123779296875,0.0006256103515625,0.0012025833129882812,-0.02185298502445221
1659027032091907600,6.510907470703125,0.019449234008789062,0.003222256898880005,-0.01799563691020012
1659027032101577200,6.5205771484375,0.035599708557128906,0.00299757719039917,-0.01885155960917473
1659027032111247000,6.5302470703125,0.007951736450195312,-0.007754713296890259,-0.03145792707800865
1659027032120916700,6.539916748046875,0.014883995056152344,-0.011325865983963013,-0.01909138821065426
1659027032130586400,6.54958642578125,0.00405120849609375,-0.012427687644958496,-0.023572267964482307
1659027032140256300,6.55925634765625,-0.013659477233886719,-0.007657170295715332,-0.02324596233665943
1659027032149926000,6.56892578125,0.02069091796875,-0.006495624780654907,0.0006915159756317735
1659027032159595800,6.578595703125,0.025055885314941406,-0.020619064569473267,-0.012328673154115677
1659027032169265700,6.588265625,0.015228271484375,-0.025038480758666992,-0.018128113821148872
1659027032178935300,6.597935302734375,-0.007376670837402344,0.004733443260192871,-0.0191543847322464
1659027032188605000,6.60760498046875,-0.0013713836669921875,-0.01890358328819275,-0.010666418820619583
1659027032198274800,6.61727490234375,0.026886940002441406,-0.0032662153244018555,-0.01649722084403038
1659027032207944400,6.6269443359375,0.004088401794433594,-0.0009444653987884521,-0.01166832447052002
1659027032217614300,6.6366142578125,-0.018329620361328125,0.002515077590942383,-0.008038557134568691
1659027032227284000,6.646283935546875,-0.0027294158935546875,-0.0010849833488464355,-0.007941784337162971
1659027032236953900,6.655953857421875,0.009079933166503906,-0.0045396387577056885,0.002738873939961195
1659027032246623500,6.66562353515625,0.017164230346679688,-0.003287762403488159,0.0026569338515400887
1659027032256293400,6.67529345703125,-0.0031213760375976562,0.0072980523109436035,0.009605815634131432
1659027032265963000,6.684962890625,-0.043066978454589844,-0.007026851177215576,0.01058315671980381
1659027032275633000,6.6946328125,-0.02116870880126953,-0.015259087085723877,0.016193188726902008
1659027032285302500,6.704302490234375,-0.026694297790527344,-0.016323775053024292,0.008824535645544529
1659027032294972400,6.713972412109375,-0.001537322998046875,-0.019780516624450684,0.0063148560002446175
1659027032304642000,6.72364208984375,-0.01797771453857422,-0.010181605815887451,0.021493157371878624
1659027032314311700,6.733311767578125,-0.027078628540039062,-0.037412405014038086,0.02588806115090847
1659027032323981600,6.742981689453125,-0.026617050170898438,-0.034720659255981445,0.023121528327465057
1659027032333651200,6.752651123046875,-0.010869026184082031,-0.02269044518470764,0.019228274002671242
1659027032343321000,6.762321044921875,-0.00008678436279296875,-0.006240218877792358,0.022456001490354538
1659027032352991000,6.771990966796875,-0.00007343292236328125,-0.011212199926376343,0.020954320207238197
1659027032362660600,6.78166064453125,0.02228832244873047,-0.0065472424030303955,0.007653325796127319
1659027032372330200,6.791330322265625,0.030162811279296875,-0.004398375749588013,0.015722958371043205
1659027032382000000,6.801000244140625,0.022607803344726562,-0.010406821966171265,-0.004664385691285133
1659027032391669800,6.810669677734375,0.01517486572265625,-0.004436612129211426,0.00002422509714961052
1659027032401339600,6.820339599609375,0.010219573974609375,0.0049349963665008545,0.003457305021584034
1659027032411009500,6.830009521484375,0.017111778259277344,0.000004380941390991211,-0.002521699061617255
1659027032420679200,6.83967919921875,0.0074176788330078125,0.00933048129081726,-0.02260497957468033
1659027032430348800,6.849348876953125,0.00024127960205078125,-0.021555781364440918,-0.026944689452648163
1659027032440018700,6.859018798828125,-0.004467964172363281,-0.015371322631835938,-0.04067891836166382
1659027032449688300,6.868688232421875,-0.004389762878417969,-0.01284778118133545,-0.04483029618859291
1659027032459358200,6.878358154296875,-0.016077041625976562,-0.010423243045806885,-0.05118097737431526
1659027032469027800,6.88802783203125,-0.0052165985107421875,-0.025686144828796387,-0.03386611491441727
1659027032478697700,6.89769775390625,-0.0027723312377929688,-0.020666271448135376,-0.0333370566368103
1659027032488367400,6.907367431640625,0.01963043212890625,-0.01220056414604187,-0.024556715041399002
1659027032498037000,6.917037109375,0.02636432647705078,-0.0026426315307617188,-0.03718455508351326
1659027032507707000,6.926706787109375,0.04710197448730469,0.013814836740493774,-0.02954227663576603
1659027032517376800,6.936376708984375,0.041609764099121094,-0.00635877251625061,-0.0209931880235672
1659027032527046400,6.94604638671875,0.01738452911376953,0.013832330703735352,-0.017208926379680634
1659027032536716300,6.95571630859375,-0.0076160430908203125,0.007861465215682983,0.004159324802458286
1659027032546386000,6.965385986328125,-0.011021614074707031,-0.0015961527824401855,0.003966501913964748
1659027032556055600,6.9750556640625,-0.007312774658203125,-0.0002510547637939453,0.010893549770116806
1659027032565725400,6.984725341796875,-0.031897544860839844,-0.0037480592727661133,-0.0035291602835059166
1659027032575395000,6.99439501953125,-0.047835350036621094,-0.02609574794769287,0.01416614931076765
1659027032585065000,7.00406494140625,-0.057621002197265625,-0.01992097496986389,0.03041943348944187
1659027032594734800,7.01373486328125,-0.040183067321777344,-0.04216974973678589,0.027637004852294922
1659027032604404500,7.023404541015625,-0.028919219970703125,-0.04046142101287842,0.0377567782998085
1659027032614074000,7.03307421875,-0.013133049011230469,-0.035394370555877686,0.024150019511580467
1659027032623744000,7.042743896484375,0.00592041015625,-0.02102839946746826,0.027211274951696396
1659027032633413600,7.05241357421875,0.027011871337890625,-0.010516643524169922,0.04078040271997452
1659027032643083500,7.06208349609375,0.02656841278076172,0.005929827690124512,0.037738122045993805
1659027032652753200,7.071753173828125,0.013189315795898438,0.019806116819381714,0.021719101816415787
1659027032662423000,7.081423095703125,-0.01643657684326172,0.024039387702941895,0.029467131942510605
1659027032672092700,7.0910927734375,-0.005570411682128906,0.007025629281997681,0.013642865233123302
1659027032681762600,7.100762451171875,0.02746868133544922,-0.0002643764019012451,0.005141163244843483
1659027032691432200,7.11043212890625,0.009365081787109375,-0.0014935731887817383,-0.0008383640088140965
1659027032701102000,7.12010205078125,0.011565208435058594,-0.01922982931137085,-0.013803687877953053
1659027032710771700,7.129771728515625,0.0043182373046875,-0.023757725954055786,-0.02775784581899643
1659027032720441600,7.139441650390625,-0.003985404968261719,-0.024623870849609375,-0.03556681051850319
1659027032730111200,7.149111328125,-0.0039157867431640625,-0.031386375427246094,-0.026749305427074432
1659027032739780900,7.15878076171875,-0.013257980346679688,-0.030948907136917114,-0.02754470705986023
1659027032749450800,7.16845068359375,-0.008325576782226562,-0.010604053735733032,-0.02832595258951187
1659027032759120600,7.17812060546875,0.0035800933837890625,-0.0023060739040374756,-0.022038064897060394
1659027032768790300,7.187790283203125,0.02117156982421875,0.003529101610183716,-0.014679410494863987
1659027032778460200,7.197460205078125,0.007879257202148438,-0.004850625991821289,-0.03447197377681732
1659027032788129800,7.2071298828125,0.01480865478515625,-0.008327901363372803,-0.030433692038059235
1659027032797799400,7.21679931640625,0.021622657775878906,0.004666447639465332,-0.030050847679376602
1659027032807469300,7.22646923828125,0.031848907470703125,-0.000060558319091796875,-0.033175352960824966
1659027032817139200,7.23613916015625,0.006609916687011719,-0.0034754276275634766,-0.02095184661448002
1659027032826808800,7.245808837890625,-0.014678955078125,-0.013949096202850342,-0.015991799533367157
1659027032836478500,7.255478515625,-0.0250244140625,-0.014836400747299194,-0.013466455973684788
1659027032846148400,7.2651484375,-0.02460479736328125,-0.02288159728050232,-0.001486068358644843
1659027032855818000,7.27481787109375,-0.007723808288574219,-0.02723485231399536,0.0032660774886608124
1659027032865488000,7.28448779296875,-0.0240631103515625,-0.026866525411605835,0.02323133498430252
1659027032875157800,7.29415771484375,-0.017774581909179688,-0.02658972144126892,0.02280692383646965
1659027032884827400,7.303827392578125,-0.0021772384643554688,-0.03808221220970154,0.029418163001537323
1659027032894497000,7.3134970703125,0.00021457672119140625,-0.021090954542160034,0.04536033049225807
1659027032904167000,7.3231669921875,0.011981964111328125,-0.015028029680252075,0.04339063540101051
1659027032913836500,7.33283642578125,-0.0011529922485351562,0.00034558773040771484,0.05436469614505768
1659027032923506400,7.34250634765625,0.0024003982543945312,-0.005685031414031982,0.033391132950782776
1659027032933176000,7.352176025390625,-0.018810272216796875,-0.0022602975368499756,0.03268268704414368
1659027032942846000,7.361845947265625,-0.009077072143554688,0.0069328248500823975,0.030865583568811417
1659027032952515600,7.371515625,-0.014801025390625,-0.007499814033508301,0.020901266485452652
1659027032962185500,7.381185546875,-0.005141258239746094,-0.018020272254943848,0.011104824021458626
1659027032971855000,7.390855224609375,0.013770103454589844,0.004547417163848877,-0.00200266158208251
1659027032981525000,7.40052490234375,0.01589488983154297,-0.006145358085632324,-0.009123128838837147
1659027032991194600,7.410194580078125,0.08974266052246094,0.004687279462814331,-0.016124924644827843
1659027033000864500,7.419864501953125,0.05647754669189453,0.00710412859916687,-0.02892264910042286
1659027033010534100,7.4295341796875,-0.006817817687988281,0.002279609441757202,-0.021477723494172096
1659027033020203800,7.439203857421875,-0.046700477600097656,0.010362833738327026,-0.05062928423285484
1659027033029873700,7.448873779296875,-0.058861732482910156,-0.0004552900791168213,-0.029852937906980515
1659027033039543600,7.45854345703125,-0.030814170837402344,-0.02535298466682434,-0.024689432233572006
1659027033049213200,7.468213134765625,-0.029114723205566406,-0.016979873180389404,-0.01952572911977768
1659027033058883000,7.477883056640625,-0.0215606689453125,-0.02292090654373169,-0.025062978267669678
1659027033068552700,7.487552734375,-0.022368431091308594,-0.049854010343551636,-0.01524406485259533
1659027033078222300,7.497222412109375,-0.019629478454589844,-0.0388333797454834,-0.013851643539965153
1659027033087892200,7.506892333984375,0.0007085800170898438,-0.020937561988830566,-0.0029862234368920326
1659027033097562000,7.51656201171875,-0.013409614562988281,-0.006841033697128296,0.023023372516036034
1659027033107231700,7.526231689453125,-0.040230751037597656,-0.00365293025970459,0.01915925182402134
1659027033116901400,7.5359013671875,-0.018367767333984375,-0.002956300973892212,0.0307096466422081
1659027033126571300,7.5455712890625,0.034893035888671875,-0.0021574199199676514,0.02326972410082817
1659027033136241000,7.555240966796875,0.027263641357421875,0.024595797061920166,0.027636803686618805
1659027033145910800,7.564910888671875,0.030350685119628906,0.01087459921836853,0.029519466683268547
1659027033155580700,7.57458056640625,0.02161884307861328,0.006907641887664795,0.018458016216754913
1659027033165250300,7.584250244140625,-0.00344085693359375,0.0018873214721679688,0.012228099629282951
1659027033174920000,7.593919921875,0.0248565673828125,-0.010051369667053223,-0.010337406769394875
1659027033184589800,7.60358984375,0.01621246337890625,-0.011231273412704468,-0.012555263005197048
1659027033194259500,7.613259521484375,0.018301963806152344,-0.004213124513626099,-0.0112370066344738
1659027033203929300,7.622929443359375,0.02153301239013672,-0.005518794059753418,-0.029882017523050308
1659027033213599000,7.632598876953125,-0.0035228729248046875,-0.004478245973587036,-0.03165942057967186
1659027033223268900,7.642268798828125,-0.0011081695556640625,-0.005694150924682617,-0.04884357377886772
1659027033232938500,7.6519384765625,0.0012664794921875,-0.0021554529666900635,-0.04224217310547829
1659027033242608400,7.6616083984375,0.025956153869628906,-0.010468870401382446,-0.036898817867040634
1659027033252278000,7.671278076171875,0.03258705139160156,0.002504289150238037,-0.03399837389588356
1659027033261948000,7.680947998046875,-0.020905494689941406,-0.004340440034866333,-0.0479876734316349
1659027033271617500,7.690617431640625,0.2794313430786133,0.050190746784210205,-0.027427876368165016
1659027033281287400,7.700287353515625,-0.08288764953613281,0.019221186637878418,-0.028272569179534912
1659027033290957000,7.70995703125,-0.1544504165649414,0.007249742746353149,-0.01725124940276146
1659027033300627000,7.719626953125,-0.2565736770629883,-0.03315591812133789,-0.011092860251665115
1659027033310296600,7.729296630859375,0.038298606872558594,-0.0658007264137268,-0.0026539000682532787
1659027033319966500,7.738966552734375,0.07295989990234375,-0.0625220239162445,-0.007408733945339918
1659027033329636000,7.748635986328125,0.07998085021972656,-0.04033219814300537,0.02679610252380371
1659027033339306000,7.758305908203125,0.08217430114746094,-0.0007228851318359375,0.015523982234299183
1659027033348975600,7.7679755859375,-0.0039043426513671875,0.026433080434799194,0.031412262469530106
1659027033358645500,7.7776455078125,-0.033252716064453125,0.04484426975250244,0.04955941438674927
1659027033368315100,7.787315185546875,-0.040932655334472656,0.0217151939868927,0.031104233115911484
1659027033377985000,7.796985107421875,-0.1767110824584961,-0.02010798454284668,0.03424602001905441
1659027033387654700,7.806654541015625,-0.21609973907470703,-0.056869447231292725,0.027897004038095474
1659027033397324300,7.81632421875,0.08281517028808594,-0.06354935467243195,0.014453684911131859
1659027033406994200,7.825994140625,0.17673492431640625,-0.029748350381851196,0.023644234985113144
1659027033416664000,7.8356640625,0.1420269012451172,-0.0034273266792297363,0.0361807718873024
1659027033426333700,7.845333740234375,0.05848217010498047,0.0143049955368042,0.027247440069913864
1659027033436003600,7.855003662109375,-0.11308002471923828,0.0010966360569000244,0.028996123000979424
1659027033445673200,7.864673095703125,-0.1241292953491211,-0.0191495418548584,0.0025363750755786896
1659027033455342800,7.8743427734375,0.060296058654785156,-0.0048268139362335205,-0.013984352350234985
1659027033465012700,7.8840126953125,0.05811595916748047,-0.02595159411430359,-0.017232567071914673
1659027033474682600,7.8936826171875,0.025388717651367188,-0.008042961359024048,-0.035807013511657715
1659027033484352300,7.903352294921875,0.022619247436523438,0.02127501368522644,-0.029480693861842155
1659027033494022000,7.91302197265625,-0.0012865066528320312,0.02327314019203186,-0.03379116207361221
1659027033503691800,7.92269189453125,-0.030673980712890625,0.01691734790802002,-0.028563831001520157
1659027033513361400,7.932361328125,-0.012516975402832031,-0.023336440324783325,-0.03753674775362015
1659027033523031300,7.94203125,-0.011125564575195312,-0.06076553463935852,-0.04988952726125717
1659027033532701200,7.951701171875,-0.02505016326904297,-0.07295027375221252,-0.03377087041735649
1659027033542370800,7.961370849609375,0.022429466247558594,-0.05184850096702576,-0.027275744825601578
1659027033552040400,7.97104052734375,-0.033225059509277344,-0.023147612810134888,-0.017331914976239204
1659027033561710300,7.98071044921875,-0.0679473876953125,-0.005683928728103638,-0.02405375801026821
1659027033571380000,7.9903798828125,-0.09974193572998047,0.026896685361862183,-0.02116737700998783
1659027033581049900,8.0000498046875,0.0007572174072265625,0.013080358505249023,0.0005237561417743564
1659027033590719700,8.0097197265625,-0.014539718627929688,-0.012156575918197632,-0.006411274895071983
1659027033600389400,8.019389404296875,0.09159564971923828,-0.024031758308410645,0.011476071551442146
1659027033610059000,8.02905908203125,0.03360939025878906,-0.009855121374130249,0.01250939629971981
1659027033619729000,8.03872900390625,0.027177810668945312,0.004113614559173584,0.012291239574551582
1659027033629398800,8.048398681640625,-0.0191497802734375,0.013229012489318848,0.017901280894875526
1659027033639068400,8.058068359375,-0.03764629364013672,0.026869922876358032,0.03638654202222824
1659027033648738000,8.067738037109375,-0.020536422729492188,0.04252272844314575,0.03697171434760094
1659027033658408000,8.077407958984375,-0.02135467529296875,0.01312345266342163,0.03531068190932274
1659027033668077600,8.08707763671875,-0.017457008361816406,-0.002759397029876709,0.019533060491085052
1659027033677747500,8.09674755859375,0.0357818603515625,-0.025294095277786255,0.03566570580005646
1659027033687417300,8.106417236328125,0.08107185363769531,-0.042633652687072754,0.022090168669819832
1659027033697087000,8.1160869140625,0.12206745147705078,-0.04057618975639343,0.006246637552976608
1659027033706756600,8.125756591796875,0.14002323150634766,-0.020763695240020752,0.003580766264349222
1659027033716426500,8.135426513671876,-0.07289886474609375,-0.0027708113193511963,0.006898545194417238
1659027033726096100,8.14509619140625,-0.07286453247070312,0.03268307447433472,0.011365064419806004
1659027033735766000,8.15476611328125,-0.048117637634277344,0.03440570831298828,-0.0054202331230044365
1659027033745435600,8.164435546875,0.0209197998046875,0.007949590682983398,-0.007776021026074886
1659027033755105500,8.17410546875,0.03704071044921875,-0.022742927074432373,-0.015891380608081818
1659027033764775200,8.183775146484376,-0.005934715270996094,-0.019868969917297363,-0.020370524376630783
1659027033774445000,8.193445068359376,-0.034069061279296875,-0.006653785705566406,-0.030658278614282608
1659027033784114700,8.20311474609375,-0.04761219024658203,-0.030271679162979126,-0.0266293752938509
1659027033793784600,8.21278466796875,-0.040927886962890625,-0.02531754970550537,-0.02028532326221466
1659027033803454200,8.2224541015625,-0.0425872802734375,-0.03700190782546997,-0.023371627554297447
1659027033813124000,8.2321240234375,-0.04656982421875,-0.048605263233184814,-0.011112377047538757
1659027033822793700,8.241793701171876,-0.021073341369628906,-0.04704555869102478,-0.019115252420306206
1659027033832463600,8.251463623046876,-0.006587028503417969,-0.04683053493499756,0.000019020168110728264
1659027033842133200,8.26113330078125,0.010008811950683594,-0.03126809000968933,-0.01172542478889227
1659027033851803100,8.27080322265625,0.03103160858154297,-0.00529143214225769,0.0038691184017807245
1659027033861472800,8.28047265625,0.028176307678222656,0.022548288106918335,0.027410615235567093
1659027033871142700,8.290142578125,0.026541709899902344,0.03947800397872925,0.015150957740843296
1659027033880812300,8.299812255859376,0.016695022583007812,0.03856378793716431,0.025420136749744415
1659027033890482200,8.309482177734376,0.02348041534423828,0.04013150930404663,0.01784173771739006
1659027033900151800,8.31915185546875,0.0642690658569336,0.017024099826812744,-0.0024377615191042423
1659027033909821700,8.32882177734375,0.07848834991455078,0.008618563413619995,0.023474659770727158
1659027033919491300,8.3384912109375,0.0018863677978515625,0.003740370273590088,0.006571958772838116
1659027033929161200,8.3481611328125,-0.05461406707763672,-0.016379117965698242,-0.007751159369945526
1659027033938830800,8.357830810546876,-0.07487297058105469,-0.02689376473426819,-0.013513986021280289
1659027033948500700,8.367500732421876,-0.03126335144042969,-0.03258422017097473,0.0008486048318445683
1659027033958170400,8.37717041015625,0.02455902099609375,-0.05106407403945923,-0.008530992083251476
1659027033967840300,8.38684033203125,0.044158935546875,-0.03520357608795166,-0.016634678468108177
1659027033977510000,8.396510009765626,0.028133392333984375,-0.044142723083496094,-0.008270385675132275
1659027033987179800,8.4061796875,-0.006449699401855469,-0.02822697162628174,-0.004725681152194738
1659027033996849400,8.415849365234376,-0.011043548583984375,-0.0102519690990448,-0.0023605378810316324
1659027034006519300,8.425519287109376,-0.04732322692871094,0.012043982744216919,-0.007064282428473234
1659027034016189000,8.43518896484375,-0.027706146240234375,0.015230149030685425,-0.022279687225818634
1659027034025858600,8.444858642578126,0.012762069702148438,0.023012220859527588,-0.02432876080274582
1659027034035528400,8.454528564453126,0.08195972442626953,0.013216674327850342,-0.025194745510816574
1659027034045198300,8.4641982421875,0.07000446319580078,0.00011184811592102051,-0.013135405257344246
1659027034054868000,8.473867919921876,0.035895347595214844,-0.0033628344535827637,-0.02477438375353813
1659027034064537900,8.483537841796876,-0.017647743225097656,-0.02436971664428711,-0.011544685810804367
1659027034074207500,8.49320751953125,-0.060883522033691406,-0.036904990673065186,-0.007861889898777008
1659027034083877000,8.502877197265626,-0.06927680969238281,-0.02934512495994568,-0.004239558707922697
1659027034093547000,8.512547119140624,-0.022233963012695312,-0.03258484601974487,-0.010087546892464161
1659027034103217000,8.522216796875,-0.0018587112426757812,-0.022772490978240967,-0.0016350805526599288
1659027034112886500,8.531886474609376,0.04288005828857422,-0.02124515175819397,0.013620646670460701
1659027034122556200,8.54155615234375,0.018636703491210938,-0.0150374174118042,0.009711412712931633
1659027034132226000,8.55122607421875,0.04185199737548828,0.006503194570541382,-0.002394609386101365
1659027034141896000,8.56089599609375,0.024677276611328125,0.032447606325149536,0.006933598779141903
1659027034151565600,8.570565673828124,0.037201881408691406,0.022665470838546753,0.016105426475405693
1659027034161235500,8.5802353515625,0.05892467498779297,0.02024751901626587,0.0062448433600366116
1659027034170905000,8.589905029296874,0.0520477294921875,0.03798374533653259,0.00004772772081196308
1659027034180574700,8.59957470703125,0.022932052612304688,0.02357432246208191,-0.0013384213671088219
1659027034190244600,8.60924462890625,-0.0009946823120117188,0.0072228312492370605,0.006681830156594515
1659027034199914500,8.61891455078125,-0.03275489807128906,-0.012499332427978516,-0.006552056409418583
1659027034209584000,8.628584228515624,-0.0486907958984375,-0.02491942048072815,-0.01015359628945589
1659027034219253800,8.638253662109374,-0.051418304443359375,-0.043043315410614014,0.00753919780254364
1659027034228923600,8.647923583984374,-0.04938507080078125,-0.05873990058898926,-0.006799146067351103
1659027034238593300,8.65759326171875,-0.07797050476074219,-0.05787494778633118,-0.00907689705491066
1659027034248263200,8.66726318359375,-0.08842849731445312,-0.06654995679855347,-0.010111764073371887
1659027034257933000,8.67693310546875,-0.06812000274658203,-0.05163627862930298,-0.002921636216342449
1659027034267602700,8.686602783203124,-0.014033317565917969,-0.044086843729019165,0.007678071036934853
1659027034277272300,8.696272216796874,0.03562164306640625,-0.04246026277542114,0.004011010751128197
1659027034286942200,8.705942138671874,0.06561851501464844,-0.006572455167770386,0.013345359824597836
1659027034296612000,8.715612060546874,0.05865001678466797,0.016867101192474365,-0.0022368684876710176
1659027034306281700,8.72528173828125,0.020030975341796875,0.036443471908569336,0.0035601891577243805
1659027034315951600,8.73495166015625,0.004405975341796875,0.03689849376678467,0.01637456752359867
1659027034325621200,8.744621337890624,0.0008020401000976562,0.02692839503288269,0.006564631126821041
1659027034335291000,8.754290771484374,-0.007443428039550781,0.027570515871047974,-0.0018199924379587173
1659027034344960800,8.763960693359374,0.0032682418823242188,0.011816650629043579,-0.005358988419175148
1659027034354630700,8.773630615234374,0.0055694580078125,-0.00023058056831359863,-0.011191943660378456
1659027034364300300,8.78330029296875,0.009009361267089844,-0.02266526222229004,-0.007459917105734348
1659027034373970000,8.792969970703124,-0.008786201477050781,-0.04116818308830261,-0.0026402727235108614
1659027034383639800,8.802639892578124,-0.005110740661621094,-0.04518821835517883,-0.010841243900358677
1659027034393309700,8.812309814453124,-0.009724617004394531,-0.0516933798789978,-0.013048948720097542
1659027034402979300,8.821979248046874,-0.014261245727539062,-0.029883205890655518,-0.016454121097922325
1659027034412649200,8.831649169921874,-0.022251129150390625,-0.01670020818710327,-0.007984495721757412
1659027034422318800,8.84131884765625,-0.008931159973144531,-0.007237941026687622,-0.012566985562443733
1659027034431988500,8.850988525390624,0.015932083129882812,0.01383131742477417,0.004044709261506796
1659027034441658400,8.860658447265624,0.020374298095703125,0.02295544743537903,-0.004354800563305616
1659027034451328300,8.870328369140625,0.022385597229003906,0.028511881828308105,-0.003230108879506588
1659027034460998000,8.879997802734374,0.02083587646484375,0.01862463355064392,0.01322774775326252
1659027034470667500,8.88966748046875,0.019311904907226562,0.0030482709407806396,-0.0012338422238826752
1659027034480337400,8.89933740234375,0.0048675537109375,-0.014535993337631226,0.007009658496826887
1659027034490007000,8.909007080078124,-0.004624366760253906,-0.024910688400268555,-0.014292435720562935
1659027034499677000,8.918677001953125,-0.04101276397705078,-0.04819589853286743,-0.0011796262115240097
1659027034509346800,8.928346923828125,-0.05208015441894531,-0.04779115319252014,-0.012962805107235909
1659027034519016400,8.938016357421875,-0.05237770080566406,-0.042687296867370605,-0.002138864016160369
1659027034528686000,8.94768603515625,-0.02913951873779297,-0.04590371251106262,-0.02205513045191765
1659027034538356000,8.95735595703125,-0.009815216064453125,-0.030299842357635498,0.006538079585880041
1659027034548025900,8.96702587890625,-0.008463859558105469,-0.012546271085739136,-0.015932632610201836
1659027034557695500,8.976695556640625,0.004630088806152344,-0.005676776170730591,-0.005031649023294449
1659027034567365000,8.986365234375,0.030445098876953125,0.015252768993377686,-0.011930973269045353
1659027034577035000,8.996034912109375,0.04641914367675781,0.029951095581054688,-0.016475237905979156
1659027034586704600,9.00570458984375,0.03859424591064453,0.04098883271217346,-0.016211220994591713
1659027034596374500,9.01537451171875,0.027367591857910156,0.03428083658218384,-0.013625318184494972
1659027034606044400,9.02504443359375,0.038677215576171875,0.012532740831375122,-0.008732261136174202
1659027034615714000,9.034714111328125,0.061560630798339844,-0.001765608787536621,-0.016918841749429703
1659027034625383700,9.0443837890625,0.04641246795654297,-0.0004177093505859375,-0.0002906478475779295
1659027034635053600,9.054053466796875,0.03386974334716797,-0.013238340616226196,-0.003965373151004314
1659027034644723500,9.063723388671875,-0.017287254333496094,-0.016405165195465088,-0.013462116941809654
1659027034654393000,9.07339306640625,-0.027587890625,-0.019661396741867065,0.004284922499209642
1659027034664062700,9.083062744140625,-0.05418586730957031,-0.03936249017715454,-0.01946697197854519
1659027034673732600,9.092732666015625,-0.04975128173828125,-0.035262614488601685,-0.006240364164113998
1659027034683402200,9.10240234375,-0.04068183898925781,-0.04775857925415039,-0.01793919876217842
1659027034693072100,9.112072021484375,-0.004703521728515625,-0.03066292405128479,-0.014149817638099194
1659027034702742000,9.121741943359375,0.00008869171142578125,-0.022172868251800537,-0.009247119538486004
1659027034712411600,9.13141162109375,0.03185558319091797,-0.008976161479949951,-0.0161321759223938
1659027034722081300,9.141081298828125,-0.03219795227050781,-0.004320085048675537,0.0006287185242399573
1659027034731751200,9.150751220703125,-0.017536163330078125,0.0025828778743743896,0.009963433258235455
1659027034741421000,9.160421142578125,0.014525413513183594,0.005926758050918579,0.027435652911663055
1659027034751090700,9.170090576171875,0.0319366455078125,0.010334521532058716,0.010470557026565075
1659027034760760600,9.179760498046875,0.013763427734375,-0.0006253421306610107,0.017314963042736053
1659027034770430200,9.18943017578125,-0.03351402282714844,0.00968855619430542,0.025252889841794968
1659027034780099800,9.199099853515625,-0.0305938720703125,-0.016640037298202515,0.02596946433186531
1659027034789769700,9.208769775390625,-0.020660400390625,-0.00026217103004455566,0.02799457684159279
1659027034799439600,9.218439697265625,-0.007367134094238281,-0.011073857545852661,0.02057148702442646
1659027034809109200,9.228109130859375,-0.0295867919921875,-0.023024052381515503,0.030891628935933113
1659027034818779000,9.23777880859375,-0.022022247314453125,-0.024215221405029297,0.029219958931207657
1659027034828448800,9.24744873046875,0.008947372436523438,-0.025443434715270996,0.01816438138484955
1659027034838118700,9.25711865234375,0.03233623504638672,-0.022951185703277588,0.017882196232676506
1659027034847788300,9.266788330078125,0.037689208984375,-0.004086703062057495,0.010542313568294048
1659027034857458200,9.276458251953125,0.018248558044433594,0.009785890579223633,0.0033265510573983192
1659027034867127800,9.2861279296875,0.022655487060546875,0.01648220419883728,-0.007440592162311077
1659027034876797400,9.29579736328125,0.0058155059814453125,0.012450248003005981,-0.01682426407933235
1659027034886467300,9.30546728515625,0.002197265625,0.010838478803634644,-0.013081913813948631
1659027034896137200,9.31513720703125,-0.00019073486328125,0.014101594686508179,-0.03287356346845627
1659027034905806800,9.324806884765625,0.006876945495605469,-0.016864120960235596,-0.031102877110242844
1659027034915476500,9.3344765625,-0.0026407241821289062,-0.01801583170890808,-0.028184328228235245
1659027034925146400,9.344146484375,-0.030823707580566406,-0.030941486358642578,-0.032373249530792236
1659027034934816300,9.353816162109375,-0.022064208984375,-0.03782624006271362,-0.041196443140506744
1659027034944486000,9.36348583984375,-0.03227043151855469,-0.05879926681518555,-0.046344075351953506
1659027034954155800,9.37315576171875,-0.019956588745117188,-0.057041287422180176,-0.023142168298363686
1659027034963825400,9.382825439453125,-0.011374473571777344,-0.042399823665618896,-0.025031959637999535
1659027034973495000,9.3924951171875,0.010003089904785156,-0.026797473430633545,-0.0163295716047287
1659027034983165000,9.4021650390625,0.022788047790527344,-0.010221809148788452,0.003990702796727419
1659027034992834800,9.411834716796875,0.04123973846435547,0.019104063510894775,0.0015331304166465998
1659027035002504400,9.42150439453125,0.0629110336303711,0.044497132301330566,0.009703859686851501
1659027035012174000,9.431174072265625,0.05245399475097656,0.03190520405769348,0.023591414093971252
1659027035021844000,9.440843994140625,0.026872634887695312,0.036079078912734985,0.019600432366132736
1659027035031513900,9.450513916015625,-0.0029850006103515625,0.027213722467422485,0.02514825016260147
1659027035041183500,9.46018359375,0.00177001953125,0.006788313388824463,0.008219489827752113
1659027035050853400,9.469853271484375,0.011152267456054688,0.006674915552139282,0.013868922367691994
1659027035060523000,9.47952294921875,0.04273033142089844,-0.012231677770614624,0.014718310907483101
1659027035070192600,9.489192626953125,0.029071807861328125,-0.03659170866012573,0.013142782263457775
1659027035079862500,9.498862548828125,-0.0008268356323242188,-0.031162410974502563,0.022183548659086227
1659027035089532400,9.508532470703125,-0.04904937744140625,-0.028261899948120117,0.012220739386975765
1659027035099202000,9.5182021484375,-0.06470108032226562,-0.03255394101142883,-0.006903312634676695
1659027035108871700,9.52787158203125,-0.06361865997314453,-0.03212544322013855,-0.008002854883670807
1659027035118541600,9.53754150390625,-0.0343170166015625,-0.027055054903030396,-0.0020252414979040623
1659027035128211500,9.54721142578125,0.009790420532226562,-0.015038758516311646,-0.010210702195763588
1659027035137881000,9.556881103515625,0.05904579162597656,-0.012634515762329102,-0.00657946802675724
1659027035147551000,9.566551025390625,0.07100486755371094,-0.005393803119659424,-0.01959226280450821
1659027035157220600,9.576220703125,0.0651102066040039,0.004278361797332764,-0.013593112118542194
1659027035166890500,9.585890380859375,0.028723716735839844,0.013817757368087769,-0.021785851567983627
1659027035176560000,9.59556005859375,-0.028230667114257812,0.018492311239242554,-0.0215747207403183
1659027035186230000,9.60522998046875,-0.035999298095703125,0.012415289878845215,-0.02727701887488365
1659027035195899600,9.614899658203125,-0.04480934143066406,-0.007848799228668213,-0.022212456911802292
1659027035205569500,9.624569580078125,-0.007592201232910156,-0.012424111366271973,-0.02429112046957016
1659027035215239200,9.6342392578125,-0.006287574768066406,-0.02521538734436035,-0.031069474294781685
1659027035224909000,9.643908935546875,-0.009709358215332031,-0.026057273149490356,-0.027087032794952393
1659027035234578700,9.65357861328125,-0.026015281677246094,-0.02100268006324768,-0.013760089874267578
1659027035244248600,9.66324853515625,-0.037342071533203125,-0.017237305641174316,-0.0030082031153142452
1659027035253918200,9.672918212890625,-0.029654502868652344,-0.02891412377357483,-0.013498199172317982
1659027035263588000,9.682588134765625,-0.029150962829589844,-0.013422787189483643,0.005513962358236313
1659027035273257700,9.6922578125,0.0066375732421875,0.0006623268127441406,0.01482326164841652
1659027035282927600,9.701927734375,0.014765739440917969,-0.0029921531677246094,0.013363394886255264
1659027035292597200,9.71159716796875,0.0051116943359375,0.015767186880111694,0.016602622345089912
1659027035302267100,9.72126708984375,-0.01849651336669922,0.007098168134689331,0.015139763243496418
1659027035311936800,9.730936767578125,-0.0005350112915039062,-0.001426398754119873,0.013702177442610264
1659027035321606700,9.740606689453125,0.024181365966796875,0.01733529567718506,0.03225833177566528
1659027035331276300,9.7502763671875,0.03672313690185547,-0.0030676424503326416,0.024565059691667557
1659027035340946200,9.7599462890625,0.030229568481445312,-0.005369693040847778,0.010025626048445702
1659027035350615800,9.76961572265625,0.009725570678710938,-0.02880987524986267,0.0061771925538778305
1659027035360285700,9.77928564453125,-0.011606216430664062,-0.033235013484954834,0.008417502045631409
1659027035369955300,9.788955322265625,-0.05023193359375,-0.03870594501495361,0.0011509135365486145
1659027035379625200,9.798625244140625,-0.059973716735839844,-0.01949360966682434,0.0034749936312437057
1659027035389294800,9.808294921875,-0.037787437438964844,-0.03715735673904419,0.004557207226753235
1659027035398964700,9.81796484375,-0.0077362060546875,-0.023938506841659546,-0.009646078571677208
1659027035408634400,9.82763427734375,0.018285751342773438,-0.03329285979270935,-0.022377509623765945
1659027035418304300,9.83730419921875,0.0062236785888671875,0.008182227611541748,-0.012601573020219803
1659027035427974000,9.846973876953125,0.0026006698608398438,-0.0040319859981536865,-0.018227584660053253
1659027035437643800,9.856643798828125,0.0049190521240234375,0.007543712854385376,-0.023815827444195747
1659027035447313400,9.8663134765625,-0.0010385513305664062,0.015425443649291992,-0.015192382968962193
1659027035456983300,9.8759833984375,0.023690223693847656,0.006762146949768066,-0.01133500412106514
1659027035466653000,9.88565283203125,0.024478912353515625,0.013480395078659058,-0.022861797362565994
1659027035476322800,9.89532275390625,0.02760601043701172,0.009583801031112671,-0.003634876338765025
1659027035485992400,9.904992431640625,0.00597381591796875,0.011634528636932373,-0.004789784550666809
1659027035495662300,9.914662353515626,-0.016473770141601562,-0.012259751558303833,-0.0058969976380467415
1659027035505332000,9.92433203125,-0.027955055236816406,-0.02169501781463623,0.004837641492486
1659027035515001900,9.934001953125,-0.03218841552734375,-0.025062233209609985,0.0024788358714431524
1659027035524671500,9.94367138671875,-0.019881248474121094,-0.02484390139579773,-0.008131949231028557
1659027035534341400,9.95334130859375,-0.050126075744628906,-0.02600473165512085,-0.0067727346904575825
1659027035544011000,9.963010986328126,-0.0445709228515625,-0.03188055753707886,-0.0006734137423336506
1659027035553681000,9.972680908203126,-0.012050628662109375,-0.030599504709243774,0.010030128061771393
1659027035563350800,9.982350830078126,0.012868881225585938,-0.022309452295303345,0.009995471686124802
1659027035573020400,9.9920205078125,0.0044384002685546875,-0.02959388494491577,0.02402127906680107
1659027035582690000,10.00168994140625,-0.028560638427734375,-0.009612798690795898,0.0037836602423340082
1659027035592360000,10.01135986328125,0.013106346130371094,-0.016995131969451904,-0.0020540920086205006
1659027035602029800,10.02102978515625,0.023492813110351562,-0.004282832145690918,0.025145750492811203
1659027035611699500,10.030699462890626,0.033699989318847656,-0.0057578980922698975,0.020070672035217285
1659027035621369000,10.040369140625,0.013153076171875,0.006795525550842285,0.013872575014829636
1659027035631039000,10.0500390625,-0.021167755126953125,-0.007947593927383423,0.013661941513419151
1659027035640708600,10.05970849609375,-0.005504608154296875,0.002260953187942505,-0.0029900451190769672
1659027035650378500,10.06937841796875,0.038130760192871094,0.01350429654121399,0.008869903162121773
1659027035660048400,10.07904833984375,0.049271583557128906,0.009408235549926758,-0.004142545163631439
1659027035669718000,10.088718017578126,0.016696929931640625,-0.00638425350189209,-0.004084981977939606
1659027035679387600,10.0983876953125,-0.011807441711425781,-0.0018850862979888916,-0.013353909365832806
1659027035689057500,10.1080576171875,0.011931419372558594,0.009569406509399414,-0.015463686548173428
1659027035698727400,10.1177275390625,0.0176239013671875,-0.0014629960060119629,-0.01280670054256916
1659027035708397000,10.12739697265625,0.020870208740234375,0.012365877628326416,-0.005516556091606617
1659027035718066700,10.137066650390626,-0.0041751861572265625,-0.0010661184787750244,-0.01949412189424038
1659027035727736600,10.146736572265626,0.005313873291015625,-0.004805564880371094,-0.016768133267760277
1659027035737406500,10.156406494140626,0.009939193725585938,0.01619473099708557,-0.012939547188580036
1659027035747076000,10.166076171875,-0.004332542419433594,-0.003240346908569336,-0.015002982690930367
1659027035756746000,10.17574609375,-0.01483917236328125,-0.008148491382598877,-0.031204739585518837
1659027035766415600,10.18541552734375,-0.0051670074462890625,-0.027234703302383423,-0.011813887394964695
1659027035776085500,10.19508544921875,-0.0038967132568359375,-0.023507654666900635,-0.009246175177395344
1659027035785755100,10.204755126953126,-0.00147247314453125,-0.03034558892250061,0.0014580677961930633
1659027035795425000,10.214425048828126,-0.0026159286499023438,-0.024270594120025635,-0.002107134787365794
1659027035805094700,10.2240947265625,-0.002559661865234375,-0.01950177550315857,0.01085950993001461
1659027035814764300,10.233764404296876,0.005722999572753906,-0.02640649676322937,0.003581590484827757
1659027035824434200,10.24343408203125,0.006810188293457031,-0.01437261700630188,0.012951538898050785
1659027035834104000,10.25310400390625,0.0031747817993164062,-0.019038349390029907,0.025640588253736496
1659027035843773700,10.262773681640626,-0.0003986358642578125,-0.00018218159675598145,0.021673258394002914
1659027035853443600,10.272443603515624,-0.0027379989624023438,-0.0004069805145263672,0.014244467951357365
1659027035863113200,10.28211328125,-0.015620231628417969,-0.017212361097335815,0.023382559418678284
1659027035872783000,10.291783203125,0.018766403198242188,-0.0031209588050842285,0.0182763934135437
1659027035882452700,10.30145263671875,-0.008597373962402344,-0.013885051012039185,0.016787491738796234
1659027035892122600,10.31112255859375,-0.0002117156982421875,-0.009147107601165771,0.009439217858016491
1659027035901792300,10.320792236328124,-0.021378517150878906,-0.012723445892333984,-0.0025209139566868544
1659027035911462100,10.330462158203124,0.0060443878173828125,0.001378476619720459,0.008100602775812149
1659027035921131800,10.3401318359375,0.008307456970214844,-0.010722339153289795,-0.002632302464917302
1659027035930801700,10.3498017578125,0.028174400329589844,0.006932497024536133,-0.004977636970579624
1659027035940471300,10.35947119140625,0.0030069351196289062,0.005412638187408447,0.0010064700618386269
1659027035950141200,10.36914111328125,0.0006074905395507812,-0.0030553340911865234,-0.01792975142598152
1659027035959810800,10.378810791015624,-0.005275726318359375,-0.011495918035507202,-0.025936439633369446
1659027035969480700,10.388480712890624,0.0159912109375,0.0004032552242279053,-0.018512804061174393
1659027035979150300,10.398150390625,0.01572704315185547,-0.013835161924362183,-0.022978525608778
1659027035988820200,10.4078203125,0.011941909790039062,-0.01730489730834961,-0.023780755698680878
1659027035998489900,10.41748974609375,0.009390830993652344,-0.012339264154434204,-0.025776373222470284
1659027036008159700,10.42715966796875,-0.00252532958984375,-0.01701045036315918,-0.03359263762831688
1659027036017829400,10.436829345703124,-0.00130462646484375,-0.014431148767471313,-0.016543373465538025
1659027036027499300,10.446499267578124,-0.0130462646484375,-0.023659557104110718,-0.023365497589111328
1659027036037169000,10.4561689453125,-0.026943206787109375,-0.024527281522750854,-0.0206327885389328
1659027036046838800,10.4658388671875,-0.014721870422363281,-0.019612014293670654,-0.019093647599220276
1659027036056508400,10.47550830078125,-0.007412910461425781,-0.015898168087005615,-0.015340996906161308
1659027036066178300,10.48517822265625,0.01859569549560547,-0.01571875810623169,-0.0010342063615098596
1659027036075848000,10.494847900390624,0.0006418228149414062,-0.00024828314781188965,0.00947627704590559
1659027036085517800,10.504517822265624,-0.0028972625732421875,-0.0003012716770172119,0.01513323187828064
1659027036095187500,10.5141875,0.0018606185913085938,0.0007945895195007324,0.016017550602555275
1659027036104857300,10.523857421875,-0.0016984939575195312,-0.00751107931137085,0.01683298498392105
1659027036114527200,10.53352734375,0.01598072052001953,0.004264801740646362,0.01654277741909027
1659027036124196900,10.54319677734375,0.0074825286865234375,0.005284607410430908,0.029113251715898514
1659027036133866500,10.552866455078124,-0.016168594360351562,-0.009063631296157837,0.01447319146245718
1659027036143536400,10.562536376953124,-0.0064849853515625,-0.004263818264007568,0.020076224580407143
1659027036153206300,10.572206298828124,-0.0040225982666015625,0.0028089284896850586,0.009142808616161346
1659027036162876000,10.5818759765625,-0.0027761459350585938,-0.004410743713378906,0.004243694245815277
1659027036172545500,10.591545654296874,-0.01566600799560547,-0.008037567138671875,0.0005494790384545922
1659027036182215400,10.60121533203125,0.005779266357421875,-0.01283729076385498,0.004059161990880966
1659027036191885300,10.61088525390625,0.0009822845458984375,-0.012765824794769287,-0.016046598553657532
1659027036201555000,10.620554931640624,-0.009618759155273438,-0.00322684645652771,0.0030356422066688538
1659027036211224800,10.630224853515625,-0.010630607604980469,-0.00328710675239563,-0.006463903933763504
1659027036220894500,10.63989453125,-0.008092880249023438,-0.015253305435180664,-0.01227937638759613
1659027036230564000,10.649564208984375,0.0014619827270507812,-0.004667103290557861,-0.00976079236716032
1659027036240234000,10.65923388671875,0.0038003921508789062,-0.01428571343421936,-0.016637234017252922
1659027036249903900,10.66890380859375,0.008452415466308594,-0.014332294464111328,-0.0175185464322567
1659027036259573500,10.678573486328125,-0.004624366760253906,-0.00955846905708313,-0.0243519376963377
1659027036269243100,10.6882431640625,-0.009245872497558594,-0.014361262321472168,-0.01692534238100052
1659027036278913000,10.6979130859375,0.0038557052612304688,-0.011968344449996948,-0.0354461669921875
1659027036288583000,10.7075830078125,0.013205528259277344,-0.015355437994003296,-0.00780529947951436
1659027036298252500,10.71725244140625,-0.0011281967163085938,0.0000521242618560791,0.005230622831732035
1659027036307922400,10.72692236328125,0.000072479248046875,-0.0024441778659820557,-0.012543553486466408
1659027036317592000,10.736592041015625,0.007132530212402344,-0.003665447235107422,-0.007778645493090153
1659027036327262000,10.746261962890625,0.001132965087890625,0.003397315740585327,0.006429636385291815
1659027036336931600,10.755931640625,-0.012998580932617188,-0.008566498756408691,-0.0008304177317768335
1659027036346601500,10.7656015625,-0.011605262756347656,-0.011981844902038574,0.004998319782316685
1659027036356271000,10.77527099609375,0.008592605590820312,-0.009543269872665405,0.009581884369254112
1659027036365941000,10.78494091796875,0.017864227294921875,-0.0059687793254852295,0.007002703379839659
1659027036375610600,10.794610595703125,0.0069789886474609375,-0.0023685991764068604,0.018585996702313423
1659027036385280500,10.804280517578125,-0.009607315063476562,-0.007035255432128906,0.024123236536979675
1659027036394950100,10.8139501953125,-0.016503334045410156,0.0012032687664031982,0.006035101134330034
1659027036404620000,10.8236201171875,-0.0138702392578125,-0.0024886727333068848,0.011808134615421295
1659027036414289700,10.83328955078125,-0.0030431747436523438,-0.014439672231674194,0.019837895408272743
1659027036423959600,10.84295947265625,-0.0065155029296875,-0.012016981840133667,0.006556426640599966
1659027036433629200,10.852629150390625,0.0018339157104492188,-0.022604286670684814,0.01929427497088909
1659027036443299000,10.862299072265625,-0.0028963088989257812,-0.011838644742965698,0.00008171075023710728
1659027036452968700,10.87196875,-0.004015922546386719,-0.010749578475952148,0.008277551271021366
1659027036462638600,10.881638671875,0.010179519653320312,-0.021471768617630005,-0.006017074454575777
1659027036472308500,10.89130859375,0.004136085510253906,-0.02489951252937317,-0.003490011440590024
1659027036481978000,10.90097802734375,-0.0029897689819335938,-0.013981848955154419,-0.011676796711981297
1659027036491647700,10.910647705078125,-0.004107475280761719,-0.025769740343093872,-0.015020336024463177
1659027036501317600,10.920317626953125,-0.0005025863647460938,-0.014951378107070923,0.0004887796239927411
1659027036510987500,10.929987548828125,0.013629913330078125,0.007451355457305908,-0.01014387235045433
1659027036520657200,10.9396572265625,0.001644134521484375,0.0024219751358032227,-0.0029247188940644264
1659027036530326800,10.949326904296875,0.02045154571533203,0.007950812578201294,-0.027594275772571564
1659027036539996700,10.95899658203125,0.017765045166015625,0.0005317032337188721,0.0011206463677808642
1659027036549666300,10.968666259765625,0.012765884399414062,0.008672565221786499,-0.00711545767262578
1659027036559336200,10.978336181640625,0.012559890747070312,-0.005788981914520264,-0.00936038140207529
1659027036569006000,10.988006103515625,0.009999275207519531,-0.009307533502578735,0.0036996291019022465
1659027036578675700,10.99767578125,0.013368606567382812,-0.008175313472747803,-0.008193287067115307
1659027036588345300,11.007345458984375,-0.0009679794311523438,-0.0046236515045166016,-0.01633104868233204
1659027036598015200,11.01701513671875,-0.0056552886962890625,-0.006956696510314941,-0.01018892414867878
1659027036607685000,11.02668505859375,0.008559226989746094,-0.009279310703277588,-0.005382530391216278
1659027036617354800,11.036354736328125,-0.0021724700927734375,-0.003214120864868164,-0.017124999314546585
1659027036627024600,11.046024658203125,-0.0056610107421875,-0.013862818479537964,-0.002645323984324932
1659027036636694300,11.0556943359375,-0.024383544921875,-0.017360538244247437,0.00680179987102747
1659027036646364200,11.0653642578125,0.0007333755493164062,-0.012536227703094482,0.00426986999809742
1659027036656033800,11.07503369140625,0.0007238388061523438,-0.008883476257324219,0.005423331167548895
1659027036665703700,11.08470361328125,0.012481689453125,-0.0018190741539001465,-0.0028817257843911648
1659027036675373300,11.094373291015625,-0.0006589889526367188,-0.010280311107635498,0.008837862871587276
1659027036685043200,11.104043212890625,-0.00299835205078125,-0.024340659379959106,0.0027691905852407217
1659027036694712800,11.113712890625,-0.002941131591796875,-0.0006049275398254395,0.012096707709133625
1659027036704382700,11.1233828125,-0.013472557067871094,-0.020851105451583862,0.0024443084839731455
1659027036714052400,11.13305224609375,-0.009710311889648438,-0.011319637298583984,-0.0011391734005883336
1659027036723722200,11.14272216796875,-0.013070106506347656,-0.017269551753997803,0.011781979352235794
1659027036733392000,11.152391845703125,0.008331298828125,-0.017181098461151123,-0.00021811341866850853
1659027036743061800,11.162061767578125,-0.00356292724609375,-0.011325538158416748,-0.0037535452283918858
1659027036752731400,11.1717314453125,-0.00702667236328125,-0.006630241870880127,-0.003641913179308176
1659027036762401300,11.1814013671875,0.02486133575439453,-0.01377791166305542,0.00932279136031866
1659027036772071000,11.19107080078125,0.0021047592163085938,0.0026375949382781982,-0.006193253677338362
1659027036781740800,11.20074072265625,0.004431724548339844,-0.0012204945087432861,-0.0014240863965824246
1659027036791410400,11.210410400390625,0.025539398193359375,0.006892651319503784,-0.013205002062022686
1659027036801080300,11.220080322265625,-0.0007600784301757812,-0.017007917165756226,0.00000442692544311285
1659027036810750000,11.22975,0.002788543701171875,0.0007232725620269775,0.002260463312268257
1659027036820419800,11.239419921875,0.01803874969482422,0.0041265785694122314,-0.011962329968810081
1659027036830089700,11.24908984375,0.01538848876953125,-0.008968979120254517,-0.022360848262906075
1659027036839759400,11.25875927734375,0.015133857727050781,-0.010053098201751709,-0.007881088182330132
1659027036849429000,11.268428955078125,0.004298210144042969,-0.025322139263153076,-0.012494642287492752
1659027036859099000,11.278098876953125,-0.012238502502441406,-0.01918870210647583,-0.008823535405099392
1659027036868768800,11.287768798828125,-0.017911911010742188,-0.01668691635131836,-0.018122659996151924
1659027036878438400,11.2974384765625,-0.010547637939453125,-0.009577780961990356,-0.009564683772623539
1659027036888108000,11.30710791015625,0.011987686157226562,-0.00488319993019104,0.0011760793859139085
1659027036897778000,11.31677783203125,-0.008205413818359375,-0.01558944582939148,-0.008292469196021557
1659027036907447800,11.32644775390625,0.003787994384765625,-0.014616638422012329,0.022030513733625412
1659027036917117400,11.336117431640625,-0.039764404296875,-0.037949323654174805,0.016515592113137245
1659027036926787300,11.345787353515625,-0.05560111999511719,0.011799991130828857,-0.0029919990338385105
1659027036936457000,11.35545703125,0.07354545593261719,0.0026463568210601807,0.004884406924247742
1659027036946126800,11.365126953125,0.03466510772705078,-0.012436121702194214,0.000866629765368998
1659027036955796500,11.37479638671875,0.015248298645019531,-0.007068008184432983,0.00010476680472493172
1659027036965466400,11.38446630859375,0.00322723388671875,-0.003335714340209961,0.006554788444191217
1659027036975136000,11.394135986328125,-0.023883819580078125,0.02136862277984619,0.0060091689229011536
