time,seconds_elapsed,z,y,x
1659027025632524000,0.05152392578125,9.80203914642334,0.29942694306373596,0.02754727564752102
1659027025642193700,0.061193603515625,9.801814079284668,0.306890606880188,0.02514655515551567
1659027025651863600,0.070863525390625,9.801920890808105,0.3036269247531891,0.02321803569793701
1659027025661533200,0.080533203125,9.801972389221191,0.3022419512271881,0.019575610756874084
1659027025671203000,0.090203125,9.80206298828125,0.29947617650032043,0.016421940177679062
1659027025680872700,0.099872802734375,9.80217170715332,0.29605069756507874,0.012525801546871662
1659027025690542300,0.109542236328125,9.80219841003418,0.2953057289123535,0.010062554851174355
1659027025700212200,0.119212158203125,9.802231788635254,0.29431283473968506,0.004368244204670191
1659027025709881900,0.1288818359375,9.802186012268066,0.29584944248199463,0.001518236706033349
1659027025719551500,0.138551513671875,9.802152633666992,0.2969580888748169,-0.00214585498906672
1659027025729221400,0.148221435546875,9.802115440368652,0.2981727421283722,-0.004532989580184221
1659027025738891000,0.15789111328125,9.8020658493042,0.2997552156448364,-0.006418395787477493
1659027025748560600,0.167560546875,9.802020072937012,0.301207035779953,-0.007482504937797785
1659027025758230500,0.17723046875,9.801968574523926,0.30283501744270325,-0.008763345889747143
1659027025767900200,0.186900146484375,9.801898956298828,0.30510464310646057,-0.00835489947348833
1659027025777570000,0.196570068359375,9.801848411560059,0.3067404627799988,-0.0075438497588038445
1659027025787239700,0.20623974609375,9.801812171936035,0.3079359233379364,-0.00717503298074007
1659027025796909300,0.215909423828125,9.801794052124023,0.3085300326347351,-0.0059804669581353664
1659027025806579200,0.2255791015625,9.80175495147705,0.3097696006298065,-0.004691754467785358
1659027025816248800,0.235248779296875,9.801750183105469,0.3099423944950104,-0.002927584107965231
1659027025825918500,0.24491845703125,9.801745414733887,0.3100873529911041,-0.0027495333924889565
1659027025835588400,0.25458837890625,9.801741600036621,0.31023934483528137,-0.00201373640447855
1659027025845258000,0.264258056640625,9.801746368408203,0.31010186672210693,-0.001131445518694818
1659027025854927600,0.273927734375,9.801750183105469,0.3099660277366638,-0.00020406600378919393
1659027025864597500,0.283597412109375,9.801732063293457,0.31054162979125977,0.0007023818325251341
1659027025874267100,0.29326708984375,9.801721572875977,0.3108914792537689,0.0016509966226294637
1659027025883937000,0.30293701171875,9.801721572875977,0.3108462989330292,0.002504497766494751
1659027025893606700,0.312606689453125,9.801718711853027,0.3109505772590637,0.0034659774973988533
1659027025903276300,0.3222763671875,9.801712036132812,0.31113722920417786,0.004347836133092642
1659027025912946200,0.3319462890625,9.801729202270508,0.3105875551700592,0.0051684933714568615
1659027025922615800,0.34161572265625,9.801743507385254,0.3101389706134796,0.005349334795027971
1659027025932285400,0.351285400390625,9.801743507385254,0.3101269602775574,0.005568175110965967
1659027025941955300,0.360955322265625,9.801749229431152,0.30997195839881897,0.005438948981463909
1659027025951625000,0.370625,9.801751136779785,0.30990898609161377,0.004963850602507591
1659027025961294600,0.380294677734375,9.801730155944824,0.3105837106704712,0.004613477736711502
1659027025970964500,0.389964599609375,9.801736831665039,0.3103426694869995,0.004809781908988953
1659027025980634000,0.399634033203125,9.8017578125,0.30968064069747925,0.005011637695133686
1659027025990303700,0.4093037109375,9.801769256591797,0.30930837988853455,0.004813950043171644
1659027025999973600,0.4189736328125,9.801736831665039,0.31036555767059326,0.004586088005453348
1659027026009643300,0.428643310546875,9.801691055297852,0.31180229783058167,0.0041367304511368275
1659027026019313000,0.43831298828125,9.80162525177002,0.31386762857437134,0.003575835842639208
1659027026028982800,0.447982666015625,9.801568984985352,0.31562870740890503,0.0030743360985070467
1659027026038652400,0.45765234375,9.801542282104492,0.3164575397968292,0.0018744859844446182
1659027026048322000,0.467322021484375,9.801530838012695,0.31682634353637695,0.0003419908171053976
1659027026057992000,0.476991943359375,9.80153751373291,0.31661567091941833,-0.0012256228365004063
1659027026067661600,0.48666162109375,9.801563262939453,0.3158310353755951,-0.002582960296422243
1659027026077331200,0.496331298828125,9.801602363586426,0.3145838975906372,-0.0035816363524645567
1659027026087001000,0.5060009765625,9.801630020141602,0.31374403834342957,-0.004295678809285164
1659027026096670700,0.515670654296875,9.801671028137207,0.3124294877052307,-0.0046822368167340755
1659027026106340400,0.52534033203125,9.801689147949219,0.3118577301502228,-0.004645502660423517
1659027026116010200,0.53501025390625,9.801685333251953,0.3119911551475525,-0.004487948026508093
1659027026125679900,0.544679931640625,9.801669120788574,0.31248772144317627,-0.003928358666598797
1659027026135349500,0.554349609375,9.801642417907715,0.3133547604084015,-0.0026563252322375774
1659027026145019400,0.564019287109375,9.801616668701172,0.3141641616821289,-0.00160266796592623
1659027026154689000,0.57368896484375,9.801592826843262,0.31490558385849,-0.0003384005685802549
1659027026164358700,0.583358642578125,9.801578521728516,0.31536543369293213,0.0006701350212097168
1659027026174028500,0.593028564453125,9.801581382751465,0.31527572870254517,0.0016717060934752226
1659027026183698200,0.6026982421875,9.801593780517578,0.3148731291294098,0.002609354443848133
1659027026193368000,0.6123681640625,9.80162239074707,0.3139548599720001,0.003589191474020481
1659027026203037700,0.62203759765625,9.801645278930664,0.3132404088973999,0.00425851671025157
1659027026212707300,0.631707275390625,9.801661491394043,0.312724232673645,0.00478561595082283
1659027026222377200,0.641377197265625,9.801664352416992,0.31264349818229675,0.005104579497128725
1659027026232046800,0.651046875,9.801651000976562,0.31307756900787354,0.005410156678408384
1659027026241716500,0.660716552734375,9.801624298095703,0.3138807713985443,0.0056540281511843204
1659027026251386400,0.670386474609375,9.801597595214844,0.31468531489372253,0.005720068700611591
1659027026261056000,0.680055908203125,9.801568031311035,0.3156382441520691,0.005750536918640137
1659027026270726000,0.689725830078125,9.80154800415039,0.3162325620651245,0.005523999221622944
1659027026280395500,0.6993955078125,9.801530838012695,0.3168196678161621,0.005122707691043615
1659027026290065200,0.709065185546875,9.801511764526367,0.31737974286079407,0.004426585976034403
1659027026299735000,0.718735107421875,9.80151081085205,0.31744202971458435,0.0033635280560702085
1659027026309404700,0.72840478515625,9.80151081085205,0.3174486458301544,0.0025731639470905066
1659027026319074300,0.73807421875,9.801514625549316,0.3173205852508545,0.0017688374500721693
1659027026328744200,0.747744140625,9.801521301269531,0.3171265721321106,0.0008782072109170258
1659027026338413800,0.757413818359375,9.801531791687012,0.3167838752269745,0.00006431979272747412
1659027026348083500,0.76708349609375,9.801549911499023,0.31625694036483765,-0.0005384386167861521
1659027026357753300,0.77675341796875,9.801559448242188,0.31595638394355774,-0.0007823585765436292
1659027026367423000,0.786423095703125,9.801563262939453,0.31582069396972656,-0.0009490007651038468
1659027026377092900,0.7960927734375,9.801568984985352,0.3156415522098541,-0.0009864044841378927
1659027026386762500,0.805762451171875,9.801569938659668,0.3156179189682007,-0.0010945324320346117
1659027026396432100,0.81543212890625,9.801563262939453,0.3158442974090576,-0.000948899716604501
1659027026406102000,0.82510205078125,9.801567077636719,0.31567269563674927,-0.0004595573991537094
1659027026415771600,0.834771728515625,9.801568031311035,0.3156704008579254,-0.00017232705431524664
1659027026425441300,0.844441162109375,9.801559448242188,0.31593167781829834,0.00025950363487936556
1659027026435111200,0.854111083984375,9.801558494567871,0.31600138545036316,0.0006526802899315953
1659027026444780800,0.86378076171875,9.801553726196289,0.3161059021949768,0.0011666974751278758
1659027026454450400,0.873450439453125,9.801545143127441,0.31638917326927185,0.0016960581997409463
1659027026464120000,0.8831201171875,9.801542282104492,0.3164636492729187,0.0023621362634003162
1659027026473790000,0.8927900390625,9.801538467407227,0.3165537118911743,0.0029904181137681007
1659027026483459600,0.90245947265625,9.801529884338379,0.3168342411518097,0.003707182826474309
1659027026493129200,0.912129150390625,9.801526069641113,0.3169322907924652,0.0043938341550529
1659027026502799000,0.921799072265625,9.801526069641113,0.3169531524181366,0.004734222777187824
1659027026512468700,0.93146875,9.801520347595215,0.3171166777610779,0.004771985113620758
1659027026522138400,0.941138427734375,9.80151653289795,0.31722795963287354,0.004858833272010088
1659027026531808300,0.950808349609375,9.80152416229248,0.3170054852962494,0.004640963394194841
1659027026541478000,0.960477783203125,9.80151653289795,0.31724801659584045,0.0044706519693136215
1659027026551147500,0.9701474609375,9.80151653289795,0.3172423541545868,0.004103383515030146
1659027026560817400,0.9798173828125,9.801518440246582,0.3171910345554352,0.0035835416056215763
1659027026570487000,0.989487060546875,9.801517486572266,0.3172089457511902,0.0030856230296194553
1659027026580157000,0.999156982421875,9.801514625549316,0.317332923412323,0.0025911927223205566
1659027026589826600,1.00882666015625,9.801506042480469,0.3175838887691498,0.0020660446025431156
1659027026599496200,1.01849609375,9.801506042480469,0.31759950518608093,0.0018149502575397491
1659027026609166000,1.028166015625,9.801494598388672,0.31793034076690674,0.0014140545390546322
1659027026618835700,1.037835693359375,9.80148983001709,0.31807154417037964,0.001211945666000247
1659027026628505300,1.04750537109375,9.801480293273926,0.318401038646698,0.0009427770273759961
1659027026638175200,1.05717529296875,9.801469802856445,0.31870317459106445,0.0009050704538822174
1659027026647844900,1.066844970703125,9.801467895507812,0.318761944770813,0.0010088563431054354
1659027026657514500,1.076514404296875,9.80146312713623,0.3189034163951874,0.0011173851089552045
1659027026667184400,1.086184326171875,9.801459312438965,0.3190159797668457,0.0014058154774829745
1659027026676854000,1.09585400390625,9.8014554977417,0.3191514313220978,0.0014405183028429747
1659027026686524000,1.10552392578125,9.801450729370117,0.31930047273635864,0.0014718162128701806
1659027026696193500,1.115193603515625,9.8014497756958,0.3193413019180298,0.001802785787731409
1659027026705863200,1.12486328125,9.801448822021484,0.3193572461605072,0.001990476856008172
1659027026715533000,1.134532958984375,9.801450729370117,0.3192925751209259,0.002324372297152877
1659027026725202700,1.14420263671875,9.80144214630127,0.31956011056900024,0.0024939151480793953
1659027026734872300,1.153872314453125,9.801431655883789,0.31986698508262634,0.0026198499836027622
1659027026744542200,1.163542236328125,9.801427841186523,0.3199757933616638,0.0029994004871696234
1659027026754211800,1.1732119140625,9.801429748535156,0.31994497776031494,0.0031680988613516092
1659027026763881500,1.182881591796875,9.801434516906738,0.3197818398475647,0.0033747905399650335
1659027026773551400,1.19255126953125,9.801447868347168,0.31935280561447144,0.0034839611034840345
1659027026783221000,1.202220947265625,9.801459312438965,0.3190116286277771,0.0033956195693463087
1659027026792891000,1.211890869140625,9.801470756530762,0.3186717927455902,0.0032155162189155817
1659027026802560500,1.221560546875,9.801473617553711,0.31859537959098816,0.003288476960733533
1659027026812230100,1.231230224609375,9.801471710205078,0.31862780451774597,0.0031844289042055607
1659027026821900000,1.240900146484375,9.801474571228027,0.31856459379196167,0.0029584080912172794
1659027026831569700,1.250569580078125,9.80146598815918,0.31884223222732544,0.0026981872506439686
1659027026841239300,1.2602392578125,9.801466941833496,0.31878167390823364,0.00260868645273149
1659027026850909200,1.2699091796875,9.801454544067383,0.3191474974155426,0.0025539370253682137
1659027026860578800,1.279578857421875,9.8014497756958,0.31931227445602417,0.002503047464415431
1659027026870248400,1.28924853515625,9.801435470581055,0.31975096464157104,0.002491741208359599
1659027026879918300,1.29891845703125,9.801424980163574,0.3201073408126831,0.0023313183337450027
1659027026889588000,1.308587890625,9.801406860351562,0.32060351967811584,0.002322860062122345
1659027026899257600,1.318257568359375,9.80140495300293,0.3206994831562042,0.0021120458841323853
1659027026908927500,1.327927490234375,9.801409721374512,0.3205587565898895,0.00200461782515049
1659027026918597000,1.33759716796875,9.801410675048828,0.3205265700817108,0.001820271136239171
1659027026928266800,1.347266845703125,9.801417350769043,0.3203331232070923,0.0014204282779246569
1659027026937936400,1.356936279296875,9.801417350769043,0.3203187882900238,0.0011584291933104396
1659027026947606300,1.366606201171875,9.801424980163574,0.3200927674770355,0.0010927928378805518
1659027026957276000,1.37627587890625,9.801435470581055,0.31978899240493774,0.0011432151077315211
1659027026966945500,1.385945556640625,9.801444053649902,0.3195323944091797,0.001360991271212697
1659027026976615400,1.395615478515625,9.801447868347168,0.3193817436695099,0.0016150401206687093
1659027026986285000,1.40528515625,9.801456451416016,0.31911590695381165,0.0018543414771556854
1659027026995955000,1.414954833984375,9.801450729370117,0.31928837299346924,0.0022513619624078274
1659027027005624600,1.42462451171875,9.801444053649902,0.31947460770606995,0.0022558278869837523
1659027027015294200,1.434294189453125,9.801436424255371,0.31971603631973267,0.002497908193618059
1659027027024964000,1.443964111328125,9.801429748535156,0.31990528106689453,0.002753990702331066
1659027027034633700,1.4536337890625,9.801424980163574,0.32006436586380005,0.00306944502517581
1659027027044303400,1.463303466796875,9.801426887512207,0.32000964879989624,0.0031866314820945263
1659027027053973200,1.47297314453125,9.80142879486084,0.3199544847011566,0.0031526293605566025
1659027027063643000,1.482642822265625,9.801429748535156,0.31995370984077454,0.003269415581598878
1659027027073312500,1.4923125,9.801424980163574,0.3200720548629761,0.00325418240390718
1659027027082982400,1.501982421875,9.801426887512207,0.3200101852416992,0.003239140845835209
1659027027092652000,1.511652099609375,9.801433563232422,0.31981369853019714,0.0031882021576166153
1659027027102322000,1.521322021484375,9.80144214630127,0.3195401132106781,0.0031123189255595207
1659027027111991600,1.530991455078125,9.801445960998535,0.3194146156311035,0.003042470430955291
1659027027121661200,1.5406611328125,9.8014497756958,0.31932029128074646,0.0030811165925115347
1659027027131331000,1.5503310546875,9.801451683044434,0.31924495100975037,0.002883414039388299
1659027027141000700,1.560000732421875,9.80143928527832,0.31965309381484985,0.0026994729414582253
1659027027150670300,1.56967041015625,9.801424026489258,0.3200961947441101,0.0025604937691241503
1659027027160340200,1.57934033203125,9.80142593383789,0.3200565278530121,0.0021481788717210293
1659027027170009900,1.589009765625,9.801417350769043,0.32029086351394653,0.0016515402821823955
1659027027179679700,1.5986796875,9.801424026489258,0.3200951814651489,0.0009798866230994463
1659027027189349400,1.608349365234375,9.80141830444336,0.32029402256011963,0.00045430281898006797
1659027027199019000,1.61801904296875,9.801416397094727,0.32035553455352783,0.0002529713383410126
1659027027208689000,1.62768896484375,9.80142879486084,0.3199779689311981,0.0003345178556628525
1659027027218358500,1.637358642578125,9.80143928527832,0.31964191794395447,0.0006663777166977525
1659027027228028200,1.647028076171875,9.801458358764648,0.31906816363334656,0.0010676010278984904
1659027027237698000,1.656697998046875,9.801466941833496,0.3188074827194214,0.001454798737540841
1659027027247367700,1.66636767578125,9.801472663879395,0.3186023533344269,0.001490847673267126
1659027027257037300,1.676037353515625,9.801481246948242,0.31835249066352844,0.001599172712303698
1659027027266707200,1.685707275390625,9.801482200622559,0.31832972168922424,0.0016683596186339855
1659027027276376800,1.695376953125,9.801478385925293,0.31845763325691223,0.0020770307164639235
1659027027286046700,1.705046630859375,9.801465034484863,0.31882116198539734,0.002273812424391508
1659027027295716400,1.71471630859375,9.801461219787598,0.318968266248703,0.002506099408492446
1659027027305386000,1.724385986328125,9.801456451416016,0.319109171628952,0.002386409556493163
1659027027315055900,1.734055908203125,9.801446914672852,0.3194112181663513,0.002427360974252224
1659027027324725500,1.7437255859375,9.801443099975586,0.31952470541000366,0.0025808317586779594
1659027027334395100,1.75339501953125,9.801431655883789,0.3198663890361786,0.002784151118248701
1659027027344065000,1.76306494140625,9.801437377929688,0.31970328092575073,0.002633275929838419
1659027027353734700,1.772734619140625,9.801437377929688,0.31969165802001953,0.0024126283824443817
1659027027363404300,1.782404296875,9.801445960998535,0.3194564878940582,0.0022717092651873827
1659027027373074200,1.79207421875,9.80145263671875,0.3192284107208252,0.0019791685044765472
1659027027382743800,1.801743896484375,9.801461219787598,0.31896308064460754,0.001902517513372004
1659027027392413700,1.81141357421875,9.801478385925293,0.3184465169906616,0.0014708805829286575
1659027027402083300,1.821083251953125,9.801491737365723,0.3180236220359802,0.0013743917224928737
1659027027411753000,1.8307529296875,9.801495552062988,0.3179072439670563,0.001032452448271215
1659027027421422800,1.8404228515625,9.801494598388672,0.31797826290130615,0.000538512715138495
1659027027431092500,1.850092529296875,9.80148696899414,0.31817927956581116,-0.000019419936506892554
1659027027440762000,1.85976220703125,9.80147647857666,0.31849291920661926,-0.0004018644103780389
1659027027450432000,1.869431884765625,9.801471710205078,0.31865546107292175,-0.0002591240918263793
1659027027460101600,1.8791015625,9.801464080810547,0.3188914358615875,-0.00023463854449801147
1659027027469771300,1.888771240234375,9.801458358764648,0.31907281279563904,-0.00036540161818265915
1659027027479441200,1.898441162109375,9.8014554977417,0.3191794157028198,-0.00034962562494911253
1659027027489110800,1.90811083984375,9.80145263671875,0.319244384765625,-0.00028384700999595225
1659027027498780700,1.91778076171875,9.801453590393066,0.31920647621154785,0.0001370050013065338
1659027027508450300,1.9274501953125,9.80146312713623,0.3189156949520111,0.0006478654686361551
1659027027518120000,1.937119873046875,9.801469802856445,0.31870174407958984,0.0006353148492053151
1659027027527789800,1.946789794921875,9.801472663879395,0.31863048672676086,0.0008444431005045772
1659027027537459500,1.95645947265625,9.801477432250977,0.31846192479133606,0.000802120310254395
1659027027547129000,1.966129150390625,9.801486015319824,0.3182258605957031,0.0006751033361069858
1659027027556799000,1.975799072265625,9.801491737365723,0.31805655360221863,0.0005216281861066818
1659027027566468600,1.985468505859375,9.801484107971191,0.31824859976768494,0.0007136311032809317
1659027027576138200,1.99513818359375,9.801472663879395,0.3186117708683014,0.000531949452124536
1659027027585808100,2.00480810546875,9.801457405090332,0.31911501288414,0.00035220306017436087
1659027027595477800,2.014477783203125,9.801441192626953,0.3195979595184326,0.0003967844240833074
1659027027605147600,2.024147705078125,9.801443099975586,0.31953972578048706,0.00030006232555024326
1659027027614817300,2.0338173828125,9.801441192626953,0.3196198642253876,0.0005288490210659802
1659027027624487000,2.04348681640625,9.801448822021484,0.3193484842777252,0.00027885561576113105
1659027027634156800,2.05315673828125,9.801451683044434,0.319270521402359,0.00023345029330812395
1659027027643826400,2.062826416015625,9.801460266113281,0.3189890384674072,0.00009370748011860996
1659027027653496000,2.07249609375,9.801474571228027,0.3185478746891022,-0.00015663121303077787
1659027027663166000,2.082166015625,9.801482200622559,0.3183225691318512,-0.0004949809517711401
1659027027672835600,2.091835693359375,9.80148983001709,0.3180815875530243,-0.0007612206973135471
1659027027682505500,2.10150537109375,9.801502227783203,0.3176979422569275,-0.0008490416803397238
1659027027692175000,2.111175048828125,9.801514625549316,0.3173413574695587,-0.0008176619303412735
1659027027701844700,2.1208447265625,9.801518440246582,0.3172382116317749,-0.0007078796625137329
1659027027711514600,2.1305146484375,9.801509857177734,0.31749221682548523,-0.0005411384627223015
1659027027721184300,2.140184326171875,9.80150318145752,0.31769677996635437,-0.00023736627190373838
1659027027730854000,2.14985400390625,9.801485061645508,0.31824856996536255,-0.00007757361163385212
1659027027740523800,2.159523681640625,9.80147647857666,0.318523645401001,0.0004198058450128883
1659027027750193400,2.169193359375,9.801468849182129,0.3187352418899536,0.0007082953816279769
1659027027759863000,2.178863037109375,9.801471710205078,0.3186366558074951,0.0009825269225984812
1659027027769533000,2.188532958984375,9.801472663879395,0.31860461831092834,0.0009748635347932577
1659027027779202600,2.19820263671875,9.801473617553711,0.31858155131340027,0.0013159604277461767
1659027027788872400,2.20787255859375,9.80147647857666,0.31851059198379517,0.0017018228536471725
1659027027798542000,2.2175419921875,9.801483154296875,0.3183164894580841,0.0019225722644478083
1659027027808211700,2.227211669921875,9.801481246948242,0.3183620870113373,0.0018793311901390553
1659027027817881600,2.236881591796875,9.801486015319824,0.31819960474967957,0.002033376833423972
1659027027827551200,2.24655126953125,9.801485061645508,0.3182544410228729,0.0022257089149206877
1659027027837220900,2.256220947265625,9.80148983001709,0.3180658519268036,0.0022079134359955788
1659027027846890800,2.265890869140625,9.801492691040039,0.31797635555267334,0.0023404015228152275
1659027027856560400,2.275560302734375,9.801491737365723,0.318037748336792,0.00239087943919003
1659027027866230000,2.28522998046875,9.801485061645508,0.31821611523628235,0.002377739641815424
1659027027875900000,2.29489990234375,9.801480293273926,0.3183850646018982,0.0023943129926919937
1659027027885569500,2.304569580078125,9.801472663879395,0.31861481070518494,0.002122631063684821
1659027027895239400,2.314239501953125,9.801469802856445,0.31869474053382874,0.0021852534264326096
1659027027904909000,2.323908935546875,9.80147647857666,0.3184952139854431,0.0019579848740249872
1659027027914578700,2.33357861328125,9.801470756530762,0.31868723034858704,0.0017354284645989537
1659027027924248600,2.34324853515625,9.80146312713623,0.3189166486263275,0.0015801462577655911
1659027027933918200,2.352918212890625,9.801461219787598,0.31896883249282837,0.0013410599203780293
1659027027943587800,2.362587890625,9.80146598815918,0.3188195824623108,0.0011545205488801003
1659027027953257700,2.3722578125,9.80147933959961,0.3184077739715576,0.0008817246998660266
1659027027962927400,2.38192724609375,9.801486015319824,0.3181968331336975,0.0006912971148267388
1659027027972597000,2.391596923828125,9.801491737365723,0.31804317235946655,0.0004280816647224128
1659027027982267000,2.401266845703125,9.801494598388672,0.3179401457309723,0.00015889744099695235
1659027027991936500,2.4109365234375,9.801497459411621,0.31788283586502075,-0.00002706955092435237
1659027028001606400,2.4206064453125,9.801499366760254,0.31779247522354126,-0.00020702449546661228
1659027028011276000,2.430276123046875,9.801497459411621,0.3178487718105316,-0.00024433303042314947
1659027028020945700,2.439945556640625,9.80148983001709,0.31811755895614624,-0.0002723516954574734
1659027028030615600,2.449615478515625,9.80148696899414,0.31818193197250366,-0.0005164410104043782
1659027028040285200,2.45928515625,9.801481246948242,0.31836801767349243,-0.0009456135448999703
1659027028049954800,2.468954833984375,9.801478385925293,0.3184467852115631,-0.001067436533048749
1659027028059624700,2.478624755859375,9.801477432250977,0.3184714913368225,-0.0006343105924315751
1659027028069294300,2.48829443359375,9.801478385925293,0.31843996047973633,-0.0005161729641258717
1659027028078964200,2.497964111328125,9.801485061645508,0.31824493408203125,-0.00037062112824060023
1659027028088633900,2.5076337890625,9.801485061645508,0.3182239234447479,0.00006884321192046627
1659027028098303500,2.517303466796875,9.801494598388672,0.3179450035095215,0.0005532416398636997
1659027028107973400,2.526973388671875,9.801504135131836,0.317676305770874,0.0007758697029203176
1659027028117643000,2.53664306640625,9.801511764526367,0.3174273669719696,0.0011572525836527348
1659027028127312600,2.546312744140625,9.801506996154785,0.31757304072380066,0.0016130554722622037
1659027028136982500,2.555982421875,9.80150318145752,0.31768113374710083,0.0018382079433649778
1659027028146652200,2.565652099609375,9.801498413085938,0.31783047318458557,0.0018601223127916455
1659027028156322000,2.575322021484375,9.80148696899414,0.31817200779914856,0.002189307939261198
1659027028165991700,2.58499169921875,9.801480293273926,0.3183671832084656,0.00244187586940825
1659027028175661300,2.594661376953125,9.80147933959961,0.3184230923652649,0.002617867663502693
1659027028185331200,2.604331298828125,9.801473617553711,0.3185773193836212,0.0026797098107635975
1659027028195000800,2.614000732421875,9.801465034484863,0.31884413957595825,0.0028317549731582403
1659027028204670700,2.623670654296875,9.801459312438965,0.319021075963974,0.002808342920616269
1659027028214340400,2.63334033203125,9.801459312438965,0.31897756457328796,0.0025735271628946066
1659027028224010200,2.64301025390625,9.80146598815918,0.31882408261299133,0.002381581813097
1659027028233680000,2.652679931640625,9.80147647857666,0.31850311160087585,0.0021462440490722656
1659027028243349500,2.662349609375,9.801486015319824,0.31820300221443176,0.0020365105010569096
1659027028253019400,2.672019287109375,9.801497459411621,0.31784695386886597,0.0016247305320575833
1659027028262689000,2.68168896484375,9.801493644714355,0.31796059012413025,0.0011913961498066783
1659027028272359000,2.69135888671875,9.801490783691406,0.31806477904319763,0.0006560396868735552
1659027028282028500,2.701028564453125,9.80148696899414,0.31820812821388245,0.00017701783508528024
1659027028291698200,2.7106982421875,9.801483154296875,0.3183000087738037,-0.00014109109179116786
1659027028301368000,2.7203681640625,9.801482200622559,0.318323016166687,-0.00009569429676048458
1659027028311037700,2.73003759765625,9.801477432250977,0.31846189498901367,-0.0000275105830951361
1659027028320707300,2.739707275390625,9.80147647857666,0.31850332021713257,0.0005761306965723634
1659027028330377200,2.749377197265625,9.80147933959961,0.31839290261268616,0.0007433517021127045
1659027028340046800,2.759046875,9.801473617553711,0.3185833990573883,0.0010284113232046366
1659027028349716500,2.768716552734375,9.801473617553711,0.31857675313949585,0.001222252962179482
1659027028359386400,2.778386474609375,9.801475524902344,0.318547785282135,0.0015980153111740947
1659027028369056000,2.788055908203125,9.80146598815918,0.3188263475894928,0.0019152486929669976
1659027028378726000,2.797725830078125,9.801457405090332,0.31909772753715515,0.0022291608620435
1659027028388395500,2.8073955078125,9.801458358764648,0.31906357407569885,0.0024951675441116095
1659027028398065200,2.817065185546875,9.801460266113281,0.3189583420753479,0.0027141158934682608
1659027028407735000,2.826735107421875,9.801460266113281,0.3189690411090851,0.0028887074440717697
1659027028417404700,2.83640478515625,9.801461219787598,0.3189387619495392,0.0029690596275031567
1659027028427074300,2.84607421875,9.801462173461914,0.31892019510269165,0.003045101184397936
1659027028436744200,2.855744140625,9.801450729370117,0.3192620575428009,0.0029651159420609474
1659027028446413800,2.865413818359375,9.801445007324219,0.31947317719459534,0.002957454649731517
1659027028456083700,2.875083740234375,9.801438331604004,0.31966498494148254,0.0028709762264043093
1659027028465753300,2.88475341796875,9.801433563232422,0.3198103606700897,0.0026482350658625364
1659027028475423000,2.894423095703125,9.801437377929688,0.31966322660446167,0.0024302643723785877
1659027028485092900,2.9040927734375,9.801441192626953,0.31959354877471924,0.002067905617877841
1659027028494762500,2.913762451171875,9.801454544067383,0.31916892528533936,0.0017619265709072351
1659027028504432400,2.923432373046875,9.801462173461914,0.3189764618873596,0.0013119550421833992
1659027028514102000,2.93310205078125,9.801450729370117,0.31931984424591064,0.0009472848032601178
1659027028523772000,2.94277197265625,9.80145263671875,0.3192307651042938,0.0003160910855513066
1659027028533441500,2.952441650390625,9.801460266113281,0.3189793825149536,0.00005826978667755611
1659027028543111200,2.962111083984375,9.801468849182129,0.3187240660190582,-0.0002750536659732461
1659027028552781000,2.971781005859375,9.801471710205078,0.3186401128768921,-0.0006141252815723419
1659027028562450700,2.98145068359375,9.80147647857666,0.31851157546043396,-0.00040618228376843035
1659027028572120600,2.99112060546875,9.801473617553711,0.3185967803001404,-0.00016181444516405463
1659027028581790200,3.000790283203125,9.80146598815918,0.31884604692459106,0.000043255509808659554
1659027028591459800,3.0104599609375,9.8014554977417,0.3191678822040558,0.00031510755070485175
1659027028601129700,3.020129638671875,9.801443099975586,0.31952112913131714,0.0007134940242394805
1659027028610799400,3.02979931640625,9.801436424255371,0.31972017884254456,0.0010283818701282144
1659027028620469000,3.039468994140625,9.801434516906738,0.31977492570877075,0.0018233407754451036
1659027028630139000,3.049138916015625,9.801435470581055,0.3197751045227051,0.0023230311926454306
1659027028639808500,3.05880859375,9.801448822021484,0.31936115026474,0.0028496049344539642
1659027028649478400,3.068478515625,9.801462173461914,0.3189396858215332,0.003136697458103299
1659027028659148000,3.07814794921875,9.801477432250977,0.31844109296798706,0.0034844251349568367
1659027028668817700,3.087817626953125,9.801485061645508,0.3182084560394287,0.003935589920729399
1659027028678487600,3.097487548828125,9.801501274108887,0.3177112638950348,0.004108607769012451
1659027028688157200,3.1071572265625,9.80151653289795,0.31724774837493896,0.004131556022912264
1659027028697827000,3.1168271484375,9.801519393920898,0.31716910004615784,0.004277665168046951
1659027028707496700,3.12649658203125,9.801515579223633,0.31725141406059265,0.004212225321680307
1659027028717166600,3.13616650390625,9.801504135131836,0.317609578371048,0.004065246321260929
1659027028726836200,3.145836181640625,9.801495552062988,0.31788474321365356,0.0035920150112360716
1659027028736505900,3.155505859375,9.801484107971191,0.31826773285865784,0.0031151168514043093
1659027028746175700,3.16517578125,9.801474571228027,0.3185665011405945,0.002553018741309643
1659027028755845400,3.174845458984375,9.801467895507812,0.3187514543533325,0.002005098620429635
1659027028765515300,3.184515380859375,9.801465034484863,0.31887510418891907,0.0015205055242404342
1659027028775185000,3.194184814453125,9.801465034484863,0.3188382387161255,0.0010650766780599952
1659027028784854500,3.2038544921875,9.801473617553711,0.3185831904411316,0.0006153995054773986
1659027028794524400,3.2135244140625,9.80147647857666,0.31848180294036865,0.00027003296418115497
1659027028804194000,3.223194091796875,9.801481246948242,0.31833532452583313,0.000011143864867335651
1659027028813863700,3.23286376953125,9.801487922668457,0.31813445687294006,-0.0001864297519205138
1659027028823533600,3.242533447265625,9.801491737365723,0.3180314302444458,-0.00017657261923886836
1659027028833203200,3.252203125,9.801486015319824,0.31821635365486145,-0.00018774514319375157
1659027028842873000,3.261873046875,9.801475524902344,0.3185236155986786,-0.00016551608860027045
1659027028852542700,3.271542724609375,9.801477432250977,0.31844744086265564,-0.0002120132849086076
1659027028862212600,3.281212646484375,9.801482200622559,0.31831666827201843,-0.00006303642294369638
1659027028871882200,3.29088232421875,9.80147647857666,0.3184923827648163,0.00017652171663939953
1659027028881552000,3.3005517578125,9.80147933959961,0.31839224696159363,0.00046914516133256257
1659027028891221800,3.3102216796875,9.801491737365723,0.3180449306964874,0.0008745377999730408
1659027028900891400,3.319891357421875,9.801501274108887,0.31774839758872986,0.00113737303763628
1659027028910561300,3.329561279296875,9.801506042480469,0.31760701537132263,0.001490841736085713
1659027028920231000,3.33923095703125,9.801508903503418,0.3175119459629059,0.001789041911251843
1659027028929900500,3.348900634765625,9.801509857177734,0.3174813389778137,0.0020995093509554863
1659027028939570400,3.3585703125,9.801511764526367,0.3174096643924713,0.0024723405949771404
1659027028949240000,3.368239990234375,9.801517486572266,0.3172370195388794,0.0026611790526658297
1659027028958910000,3.377909912109375,9.80152416229248,0.3170190751552582,0.0028838359285146
1659027028968579600,3.38757958984375,9.801532745361328,0.3167487382888794,0.0030648631509393454
1659027028978249200,3.397249267578125,9.801532745361328,0.31675899028778076,0.002893349388614297
1659027028987919000,3.406919189453125,9.801523208618164,0.31703636050224304,0.0028157879132777452
1659027028997588700,3.416588623046875,9.801519393920898,0.31715548038482666,0.002784153912216425
1659027029007258600,3.426258544921875,9.801518440246582,0.3171878755092621,0.0026761717163026333
1659027029016928300,3.43592822265625,9.801509857177734,0.31747424602508545,0.002402771031484008
1659027029026598100,3.44559814453125,9.801506996154785,0.3175477981567383,0.0021614909637719393
1659027029036267800,3.455267822265625,9.801493644714355,0.31798502802848816,0.0019736746326088905
1659027029045937400,3.4649375,9.801487922668457,0.31814318895339966,0.0015714137116447091
1659027029055607300,3.474607177734375,9.801482200622559,0.31831276416778564,0.0012621426722034812
1659027029065277000,3.48427685546875,9.80147933959961,0.31841886043548584,0.0011479107197374105
1659027029074946800,3.49394677734375,9.801475524902344,0.3185313642024994,0.0008276482694782317
1659027029084616400,3.503616455078125,9.801473617553711,0.31861743330955505,0.0005537434481084347
1659027029094286000,3.5132861328125,9.801473617553711,0.3185889720916748,0.00024349252635147423
1659027029103956000,3.5229560546875,9.801477432250977,0.31849563121795654,-0.0002960361889563501
1659027029113625600,3.53262548828125,9.80148696899414,0.31818246841430664,-0.0004192159394733608
1659027029123295200,3.542295166015625,9.801491737365723,0.3180113434791565,-0.000622930470854044
1659027029132965000,3.551965087890625,9.801496505737305,0.31788429617881775,-0.000993205700069666
1659027029142634800,3.561634765625,9.80150032043457,0.31777244806289673,-0.001096098218113184
1659027029152304600,3.5713046875,9.801499366760254,0.31777647137641907,-0.0009009657660499215
1659027029161974300,3.580974365234375,9.801502227783203,0.3176764249801636,-0.0006663096719421446
1659027029171644200,3.59064404296875,9.80151081085205,0.3174639642238617,-0.000595272402279079
1659027029181313800,3.600313720703125,9.80151081085205,0.31744787096977234,-0.0002186815981986001
1659027029190983700,3.609983642578125,9.801508903503418,0.3175000846385956,0.00011935309157706797
1659027029200653300,3.6196533203125,9.801513671875,0.3173863887786865,0.0004223758587613702
1659027029210323000,3.629322998046875,9.801505088806152,0.3176540434360504,0.0007261615828610957
1659027029219992800,3.638992919921875,9.801496505737305,0.31786587834358215,0.001129291602410376
1659027029229662500,3.648662353515625,9.801487922668457,0.3181386888027191,0.0014875959604978561
1659027029239332000,3.65833203125,9.801486015319824,0.3181949853897095,0.0016557504422962666
1659027029249002000,3.668001953125,9.801493644714355,0.3179797828197479,0.0020482174586504698
1659027029258671600,3.677671630859375,9.80150032043457,0.31779032945632935,0.002284189686179161
1659027029268341500,3.687341552734375,9.801507949829102,0.31749722361564636,0.0023830048739910126
1659027029278011100,3.69701123046875,9.801514625549316,0.3173244893550873,0.0025777879636734724
1659027029287681000,3.706680908203125,9.801505088806152,0.3176236152648926,0.0024162353947758675
1659027029297350700,3.7163505859375,9.801497459411621,0.31786662340164185,0.0023752152919769287
1659027029307020300,3.726020263671875,9.801492691040039,0.3180256485939026,0.0020670827943831682
1659027029316690200,3.735690185546875,9.801483154296875,0.31829017400741577,0.0016633262857794762
1659027029326359800,3.74535986328125,9.80148983001709,0.318095862865448,0.0014219243312254548
1659027029336029700,3.75502978515625,9.801495552062988,0.31790223717689514,0.0011931516928598285
1659027029345699300,3.76469921875,9.801499366760254,0.31782546639442444,0.0008770320564508438
1659027029355369200,3.774369140625,9.801501274108887,0.31772664189338684,0.0008263839990831912
1659027029365038800,3.784038818359375,9.801507949829102,0.3175147771835327,0.0007604650454595685
1659027029374708500,3.79370849609375,9.801506996154785,0.31757086515426636,0.0005760235944762826
1659027029384378400,3.80337841796875,9.801507949829102,0.31753775477409363,0.0005551116773858666
1659027029394048000,3.813048095703125,9.801513671875,0.3173710107803345,0.0005764049128629267
1659027029403718000,3.8227177734375,9.80151081085205,0.31746429204940796,0.0007522719679400325
1659027029413387500,3.832387451171875,9.801518440246582,0.31719762086868286,0.0007455632439814508
1659027029423057200,3.84205712890625,9.801515579223633,0.31730395555496216,0.0011578279081732035
1659027029432727000,3.85172705078125,9.801522254943848,0.3170994520187378,0.0015356679214164615
1659027029442397000,3.86139697265625,9.801518440246582,0.31722313165664673,0.0022329911589622498
1659027029452066600,3.871066650390625,9.801513671875,0.31736695766448975,0.0026424017269164324
1659027029461736200,3.880736083984375,9.801507949829102,0.31749626994132996,0.0029631718061864376
1659027029471406000,3.890406005859375,9.80150318145752,0.31768718361854553,0.003003146266564727
1659027029481075700,3.90007568359375,9.801506996154785,0.31754425168037415,0.003250467125326395
1659027029490745300,3.909745361328125,9.801506996154785,0.31757158041000366,0.003175480058416724
1659027029500415200,3.919415283203125,9.801504135131836,0.3176611065864563,0.0029746154323220253
1659027029510084900,3.9290849609375,9.801504135131836,0.31766432523727417,0.0027741880621761084
1659027029519754800,3.938754638671875,9.801512718200684,0.31734758615493774,0.0025086512323468924
1659027029529424400,3.94842431640625,9.80152416229248,0.3170361816883087,0.0020499678794294596
1659027029539094300,3.95809423828125,9.801535606384277,0.31666016578674316,0.0017242827452719212
1659027029548764000,3.967763916015625,9.801541328430176,0.31651896238327026,0.0013518300838768482
1659027029558433800,3.977433837890625,9.801549911499023,0.31622397899627686,0.0009381164563819766
1659027029568103400,3.987103515625,9.80154800415039,0.3162759244441986,0.0004933737218379974
1659027029577773000,3.99677294921875,9.80153751373291,0.31661882996559143,0.0001254195231013
1659027029587443000,4.00644287109375,9.801520347595215,0.31714901328086853,-0.0001272456138394773
1659027029597112600,4.016112548828125,9.801511764526367,0.31741875410079956,-0.00021718142670579255
1659027029606782200,4.0257822265625,9.801502227783203,0.31770801544189453,-0.0003226340049877763
1659027029616452000,4.0354521484375,9.80150032043457,0.31776919960975647,-0.00009110054088523611
1659027029626121700,4.045121826171875,9.801501274108887,0.31774038076400757,0.00016501937352586538
1659027029635791600,4.05479150390625,9.801502227783203,0.3177233040332794,0.00044640502892434597
1659027029645461200,4.064461181640625,9.801501274108887,0.317731648683548,0.0007467438699677587
1659027029655131100,4.074131103515625,9.80151081085205,0.3174382448196411,0.0008199283620342612
1659027029664800800,4.08380078125,9.801508903503418,0.31752389669418335,0.0011445119744166732
1659027029674470700,4.093470703125,9.801511764526367,0.31738606095314026,0.0013240812113508582
1659027029684140300,4.103140380859375,9.801513671875,0.3173581063747406,0.001440822845324874
1659027029693810000,4.112809814453125,9.801506996154785,0.3175700604915619,0.0015652213478460908
1659027029703479800,4.122479736328125,9.80151081085205,0.3174401521682739,0.0018603462958708405
1659027029713149400,4.1321494140625,9.801511764526367,0.3174307644367218,0.0020062862895429134
1659027029722819000,4.141819091796875,9.80151081085205,0.3174545466899872,0.0021317838691174984
1659027029732489000,4.151489013671875,9.801513671875,0.317365825176239,0.0022056843154132366
1659027029742158600,4.16115869140625,9.801508903503418,0.3174889385700226,0.002358942525461316
1659027029751828500,4.170828369140625,9.801505088806152,0.317608118057251,0.0023616210091859102
1659027029761498000,4.180498046875,9.801495552062988,0.31792861223220825,0.0020964692812412977
1659027029771168000,4.19016796875,9.801491737365723,0.31803420186042786,0.0020350597333163023
1659027029780837600,4.199837646484375,9.80148696899414,0.3181629776954651,0.0018473678501322865
1659027029790507500,4.209507568359375,9.801495552062988,0.317890465259552,0.0015868166228756309
1659027029800177200,4.21917724609375,9.801498413085938,0.31780698895454407,0.00133070710580796
1659027029809846800,4.2288466796875,9.801502227783203,0.3177015781402588,0.0009297934593632817
1659027029819516700,4.2385166015625,9.801509857177734,0.3174665868282318,0.0004956051125191152
1659027029829186300,4.248186279296875,9.80151081085205,0.317451149225235,0.0000686632702127099
1659027029838856200,4.257856201171875,9.801511764526367,0.31740716099739075,-0.00027321113157086074
1659027029848525800,4.26752587890625,9.801515579223633,0.317298024892807,-0.0005003818077966571
1659027029858195700,4.27719580078125,9.801514625549316,0.3173335790634155,-0.000869030540343374
1659027029867865300,4.286865234375,9.801508903503418,0.31753599643707275,-0.0010739254066720605
1659027029877535200,4.29653515625,9.801511764526367,0.317440390586853,-0.0011812362354248762
1659027029887204900,4.306204833984375,9.80151653289795,0.3172816038131714,-0.0011423872783780098
1659027029896874500,4.31587451171875,9.80151081085205,0.31745368242263794,-0.0009531667456030846
1659027029906544400,4.32554443359375,9.801497459411621,0.3178425431251526,-0.000888602517079562
1659027029916214000,4.335214111328125,9.80148983001709,0.31810349225997925,-0.0007682028808631003
1659027029925884000,4.3448837890625,9.801486015319824,0.3182165026664734,-0.00048735234304331243
1659027029935553500,4.354553466796875,9.801478385925293,0.3184552788734436,-0.00024165702052414417
1659027029945223400,4.364223388671875,9.801471710205078,0.318657249212265,0.0001794407144188881
1659027029954893000,4.37389306640625,9.801470756530762,0.3186999559402466,0.0007150366436690092
1659027029964563000,4.38356298828125,9.801470756530762,0.3186756670475006,0.0012284613912925124
1659027029974232600,4.393232666015625,9.801478385925293,0.3184414803981781,0.0015653247246518731
1659027029983902200,4.402902099609375,9.80148983001709,0.31810542941093445,0.001869136351160705
1659027029993572000,4.412572021484375,9.801499366760254,0.3177861273288727,0.0020880072843283415
1659027030003241700,4.42224169921875,9.801507949829102,0.31753861904144287,0.002019086852669716
1659027030012911600,4.43191162109375,9.80151081085205,0.31743407249450684,0.0020550370682030916
1659027030022581200,4.441581298828125,9.801518440246582,0.31721001863479614,0.0019222033442929387
1659027030032251000,4.4512509765625,9.801512718200684,0.31739941239356995,0.0017278369050472975
1659027030041920800,4.460920654296875,9.801504135131836,0.3176415264606476,0.0015394689980894327
1659027030051590400,4.47059033203125,9.801488876342773,0.31813034415245056,0.0014920864487066865
1659027030061260300,4.48026025390625,9.801472663879395,0.31859490275382996,0.0010779513977468014
1659027030070930000,4.489929931640625,9.801466941833496,0.318790465593338,0.0006726843421347439
1659027030080599800,4.499599853515625,9.801461219787598,0.31898707151412964,0.0002616811834741384
1659027030090269400,4.50926953125,9.8014554977417,0.3191511631011963,-0.000029493543479475193
1659027030099939300,4.518939208984375,9.801456451416016,0.3191307783126831,-0.0002140997239621356
1659027030109609000,4.52860888671875,9.801456451416016,0.319140762090683,-0.0004117511271033436
1659027030119278600,4.538278564453125,9.801465034484863,0.31887510418891907,-0.0004646490851882845
1659027030128948500,4.547948486328125,9.80147933959961,0.3184315860271454,-0.0006695830379612744
1659027030138618000,4.5576181640625,9.801484107971191,0.31830495595932007,-0.0005225677159614861
1659027030148288000,4.5672880859375,9.801487922668457,0.3181467354297638,-0.0006951570976525545
1659027030157957600,4.57695751953125,9.801496505737305,0.31789663434028625,-0.0005959808477200568
1659027030167627500,4.58662744140625,9.801499366760254,0.31779852509498596,-0.00037317018723115325
1659027030177297200,4.596297119140625,9.801492691040039,0.3179994225502014,-0.00004011705459561199
1659027030186966800,4.605966796875,9.80148696899414,0.318170964717865,0.0003644106036517769
1659027030196636700,4.61563671875,9.801480293273926,0.3183690905570984,0.0004961750819347799
1659027030206306300,4.625306396484375,9.801481246948242,0.318356454372406,0.0007568645523861051
1659027030215976200,4.63497607421875,9.801469802856445,0.3186984956264496,0.000862144457641989
1659027030225645800,4.644645751953125,9.801466941833496,0.3188106119632721,0.0010255066445097327
1659027030235315700,4.654315673828125,9.80146598815918,0.3188406527042389,0.0012440194841474295
1659027030244985300,4.6639853515625,9.801465034484863,0.3188331425189972,0.0012224427191540599
1659027030254655200,4.6736552734375,9.801471710205078,0.3186757564544678,0.0012278646463528275
1659027030264324900,4.683324951171875,9.80148696899414,0.3181752562522888,0.0011827945709228516
1659027030273994500,4.692994384765625,9.801498413085938,0.31782758235931396,0.0011232829419896007
1659027030283664400,4.702664306640625,9.801507949829102,0.3175358176231384,0.0010819038143381476
1659027030293334000,4.712333984375,9.801520347595215,0.31715595722198486,0.0009690377628430724
1659027030303004000,4.72200390625,9.801525115966797,0.316993772983551,0.0006490005762316287
1659027030312673500,4.731673583984375,9.801525115966797,0.3169906437397003,0.0006260712398216128
1659027030322343400,4.741343505859375,9.801521301269531,0.31712037324905396,0.0007790661766193807
1659027030332013000,4.751012939453125,9.801515579223633,0.31728848814964294,0.0008677873993292451
1659027030341683000,4.760682861328125,9.801506996154785,0.31757593154907227,0.0009407635079696774
1659027030351352600,4.7703525390625,9.801497459411621,0.31784194707870483,0.0009896489791572094
1659027030361022200,4.780022216796875,9.801492691040039,0.3180103302001953,0.001176419435068965
1659027030370692000,4.789692138671875,9.801494598388672,0.31796401739120483,0.0013534148456528783
1659027030380361700,4.79936181640625,9.801493644714355,0.31799378991127014,0.0015274594770744443
1659027030390031600,4.809031494140625,9.801501274108887,0.31773027777671814,0.0016958494670689106
1659027030399701200,4.818701171875,9.801521301269531,0.317127525806427,0.0018709161086007953
1659027030409371100,4.82837109375,9.801531791687012,0.3167860209941864,0.0020316876471042633
1659027030419040800,4.838040771484375,9.801548957824707,0.3162750005722046,0.0020873546600341797
1659027030428710700,4.847710693359375,9.801562309265137,0.315834105014801,0.0021960993763059378
1659027030438380300,4.85738037109375,9.801568984985352,0.31565552949905396,0.00220623635686934
1659027030448050000,4.8670498046875,9.801568984985352,0.31561461091041565,0.0023918957449495792
1659027030457719800,4.8767197265625,9.801572799682617,0.31552550196647644,0.002438587136566639
1659027030467389400,4.886389404296875,9.801573753356934,0.315495103597641,0.002455096924677491
1659027030477059300,4.896059326171875,9.801573753356934,0.31549832224845886,0.002490123501047492
1659027030486729000,4.90572900390625,9.801569938659668,0.3156059980392456,0.0024838156532496214
1659027030496398800,4.91539892578125,9.80156421661377,0.315798282623291,0.0024785606656223536
1659027030506068500,4.925068359375,9.801562309265137,0.3158266544342041,0.0024421648122370243
1659027030515738400,4.93473828125,9.801566123962402,0.3157162666320801,0.00239965901710093
1659027030525408000,4.944407958984375,9.801570892333984,0.3155902922153473,0.0026561280246824026
1659027030535077600,4.95407763671875,9.801578521728516,0.31535789370536804,0.0025701599661260843
1659027030544747500,4.96374755859375,9.801579475402832,0.3153015673160553,0.002603484084829688
1659027030554417200,4.973417236328125,9.80158519744873,0.3151348829269409,0.0024366965517401695
1659027030564087000,4.983087158203125,9.801591873168945,0.31492388248443604,0.0026308244559913874
1659027030573756700,4.992756591796875,9.801597595214844,0.3147580921649933,0.0025348232593387365
1659027030583426600,5.002426513671875,9.801597595214844,0.3147348463535309,0.0024413156788796186
1659027030593096200,5.01209619140625,9.801596641540527,0.31476354598999023,0.002436782931908965
1659027030602766000,5.02176611328125,9.801592826843262,0.3148832321166992,0.002455206122249365
1659027030612435700,5.031435791015625,9.801600456237793,0.3146570920944214,0.0024201313499361277
1659027030622105300,5.041105224609375,9.801602363586426,0.3145982027053833,0.0022915657609701157
1659027030631775200,5.050775146484375,9.801604270935059,0.31455016136169434,0.00215006317012012
1659027030641444900,5.06044482421875,9.801600456237793,0.31464964151382446,0.0021618029568344355
1659027030651114800,5.07011474609375,9.801600456237793,0.31467288732528687,0.002064208500087261
1659027030660784600,5.07978466796875,9.801605224609375,0.3145158886909485,0.0018493717070668936
1659027030670454300,5.089454345703125,9.801600456237793,0.31467029452323914,0.002034207805991173
1659027030680124000,5.0991240234375,9.80160140991211,0.31464821100234985,0.0022455318830907345
1659027030689793800,5.108793701171875,9.801606178283691,0.31449437141418457,0.002285307738929987
1659027030699463400,5.11846337890625,9.801602363586426,0.3146246075630188,0.0022322554141283035
1659027030709133000,5.128133056640625,9.801596641540527,0.314767450094223,0.002194220433011651
1659027030718803000,5.137802978515625,9.80160140991211,0.3146282732486725,0.0020306031219661236
1659027030728472800,5.147472900390625,9.801593780517578,0.3148649334907532,0.0021480571012943983
1659027030738142500,5.157142578125,9.801595687866211,0.3148195743560791,0.002339331666007638
1659027030747812000,5.16681201171875,9.801593780517578,0.3148709535598755,0.002368051093071699
1659027030757482000,5.17648193359375,9.801589012145996,0.3150251507759094,0.00238573900423944
1659027030767151600,5.186151611328125,9.80158805847168,0.3150550127029419,0.002285270718857646
1659027030776821500,5.195821533203125,9.801584243774414,0.3151753842830658,0.00230521522462368
1659027030786491100,5.2054912109375,9.801591873168945,0.3149246871471405,0.0022251137997955084
1659027030796161000,5.2151611328125,9.801591873168945,0.31493306159973145,0.002197667956352234
1659027030805830700,5.22483056640625,9.80158805847168,0.31500527262687683,0.002298938110470772
1659027030815500500,5.23450048828125,9.801589965820312,0.3150152564048767,0.0020584678277373314
1659027030825170200,5.244170166015625,9.801591873168945,0.31492942571640015,0.0019634473137557507
1659027030834839800,5.25383984375,9.801589965820312,0.3150048553943634,0.0018691159784793854
1659027030844509700,5.263509765625,9.80158805847168,0.3150205910205841,0.0015798170352354646
1659027030854179300,5.273179443359375,9.801581382751465,0.3152378797531128,0.001707506482489407
1659027030863849200,5.28284912109375,9.801582336425781,0.31523948907852173,0.001704815891571343
1659027030873518800,5.292518798828125,9.801580429077148,0.31531012058258057,0.0016860866453498602
1659027030883188700,5.302188720703125,9.801579475402832,0.31531116366386414,0.001388345961458981
1659027030892858400,5.3118583984375,9.801583290100098,0.3152293562889099,0.0009512499673292041
1659027030902528300,5.3215283203125,9.801583290100098,0.31517699360847473,0.0006572448764927685
1659027030912198000,5.331197998046875,9.8015775680542,0.31537705659866333,0.0006349242175929248
1659027030921867500,5.340867431640625,9.80157470703125,0.31548866629600525,0.0006748181767761707
1659027030931537400,5.350537353515625,9.801581382751465,0.31525132060050964,0.0008328200201503932
1659027030941207000,5.36020703125,9.80158519744873,0.3151375651359558,0.0007888652617111802
1659027030950877000,5.369876953125,9.801580429077148,0.3152962327003479,0.0008519204566255212
1659027030960546800,5.379546875,9.801578521728516,0.31537315249443054,0.0011123142903670669
1659027030970216400,5.389216552734375,9.80157470703125,0.3154338002204895,0.0011973398504778743
1659027030979886000,5.398885986328125,9.801566123962402,0.3157452940940857,0.001266831299290061
1659027030989556000,5.408555908203125,9.801567077636719,0.3157075345516205,0.0016097077168524265
1659027030999225600,5.4182255859375,9.801569938659668,0.3156210780143738,0.001669438206590712
1659027031008895200,5.427895263671875,9.801576614379883,0.31539493799209595,0.001806143089197576
1659027031018565000,5.437565185546875,9.801581382751465,0.315243124961853,0.0018132745753973722
1659027031028235000,5.447235107421875,9.801590919494629,0.3149296045303345,0.0018126763170585036
1659027031037904600,5.456904541015625,9.80159854888916,0.31473082304000854,0.0015119402669370174
1659027031047574500,5.466574462890625,9.80160903930664,0.31441184878349304,0.0012446411419659853
1659027031057244200,5.476244140625,9.801609992980957,0.314383327960968,0.0012125344946980476
1659027031066913800,5.485913818359375,9.801610946655273,0.31434571743011475,0.0011876387288793921
1659027031076583700,5.495583740234375,9.801607131958008,0.3144584000110626,0.0012723273830488324
1659027031086253300,5.50525341796875,9.801604270935059,0.3145292103290558,0.00130716513376683
1659027031095923200,5.514923095703125,9.801606178283691,0.3144807517528534,0.0013035101583227515
1659027031105592800,5.5245927734375,9.801608085632324,0.31442180275917053,0.0012741329846903682
1659027031115262700,5.5342626953125,9.801612854003906,0.3142670691013336,0.001373453182168305
1659027031124932400,5.543932373046875,9.801613807678223,0.3142559230327606,0.0011947861639782786
1659027031134602200,5.553602294921875,9.801614761352539,0.31421777606010437,0.0009981845505535603
1659027031144272000,5.56327197265625,9.801619529724121,0.31404900550842285,0.0008619670406915247
1659027031153941500,5.57294140625,9.801626205444336,0.3138720691204071,0.0007423373172059655
1659027031163611400,5.582611328125,9.80163860321045,0.3134723901748657,0.0007073776214383543
1659027031173281000,5.592281005859375,9.801647186279297,0.3131856322288513,0.0005057859234511852
1659027031182951000,5.601950927734375,9.801653861999512,0.31298649311065674,0.0005516334786079824
1659027031192620500,5.61162060546875,9.801664352416992,0.31267231702804565,0.0006803301512263715
1659027031202290400,5.62129052734375,9.80167007446289,0.3125217854976654,0.0007841823389753699
1659027031211960000,5.6309599609375,9.80167293548584,0.3123911917209625,0.0006677709752693772
1659027031221630000,5.6406298828125,9.801673889160156,0.31236499547958374,0.000663412909489125
1659027031231299600,5.650299560546875,9.801671981811523,0.3124569356441498,0.000744786870200187
1659027031240969500,5.659969482421875,9.801668167114258,0.3125517964363098,0.0007600071257911623
1659027031250639000,5.66963916015625,9.801656723022461,0.3129139542579651,0.0009354855865240097
1659027031260309000,5.67930908203125,9.801655769348145,0.31293532252311707,0.0012543690390884876
1659027031269978600,5.688978515625,9.801647186279297,0.31321287155151367,0.0015536126447841525
1659027031279648300,5.698648193359375,9.801641464233398,0.3133690357208252,0.001866898383013904
1659027031289318100,5.708318115234375,9.801647186279297,0.313213974237442,0.002216933760792017
1659027031298987800,5.71798779296875,9.801652908325195,0.313036173582077,0.0026295860297977924
1659027031308657700,5.72765771484375,9.801661491394043,0.31273889541625977,0.002886212896555662
1659027031318327600,5.73732763671875,9.801664352416992,0.31266486644744873,0.003228964051231742
1659027031327997200,5.7469970703125,9.80167007446289,0.31248781085014343,0.00327065191231668
1659027031337666800,5.756666748046875,9.80167007446289,0.3124638497829437,0.0034611050505191088
1659027031347336700,5.766336669921875,9.801666259765625,0.312599778175354,0.003497981233522296
1659027031357006300,5.77600634765625,9.801661491394043,0.3127543032169342,0.003648750251159072
1659027031366676000,5.785676025390625,9.801653861999512,0.3129824101924896,0.0035132537595927715
1659027031376345900,5.795345947265625,9.80163860321045,0.31343981623649597,0.0037917608860880136
1659027031386015700,5.805015625,9.80162525177002,0.313876211643219,0.003969503566622734
1659027031395685400,5.814685302734375,9.80160140991211,0.3146120011806488,0.004282928071916103
1659027031405355300,5.824355224609375,9.801572799682617,0.31551188230514526,0.004493986256420612
1659027031415025000,5.83402490234375,9.801549911499023,0.31619974970817566,0.004416351206600666
1659027031424694500,5.843694580078125,9.801533699035645,0.31669726967811584,0.004154990427196026
1659027031434364400,5.853364501953125,9.801547050476074,0.3162902295589447,0.003601179923862219
1659027031444034000,5.863033935546875,9.801573753356934,0.31548574566841125,0.002966272411867976
1659027031453704000,5.872703857421875,9.801603317260742,0.3145431876182556,0.0024665286764502525
1659027031463373600,5.88237353515625,9.801637649536133,0.3135208189487457,0.0019003101624548435
1659027031473043500,5.89204345703125,9.801665306091309,0.3126351833343506,0.0019081243081018329
1659027031482713000,5.901713134765625,9.801690101623535,0.3118763864040375,0.0015376192750409245
1659027031492382700,5.9113828125,9.80169677734375,0.3116580843925476,0.0011883456027135253
1659027031502052600,5.921052490234375,9.8016996383667,0.31156834959983826,0.0008381070801988244
1659027031511722500,5.930722412109375,9.801688194274902,0.311932235956192,0.000509772275108844
1659027031521392000,5.94039208984375,9.801654815673828,0.3129674792289734,0.0003008244966622442
1659027031531062000,5.95006201171875,9.801608085632324,0.3144245147705078,0.0002200860617449507
1659027031540731600,5.959731689453125,9.801579475402832,0.3153085708618164,0.00015566401998512447
1659027031550401300,5.9694013671875,9.801570892333984,0.31560179591178894,-0.00013853384007234126
1659027031560071200,5.9790712890625,9.801580429077148,0.315312922000885,-0.00025296915555372834
1659027031569740800,5.98874072265625,9.801591873168945,0.31491437554359436,-0.0001442511274944991
1659027031579410700,5.99841064453125,9.801613807678223,0.3142540156841278,-0.00015303965483326465
1659027031589080300,6.008080322265625,9.801629066467285,0.3137657940387726,-0.00002297600258316379
1659027031598750200,6.017750244140625,9.801644325256348,0.31329813599586487,0.00004802504554390907
1659027031608419800,6.027419921875,9.801651954650879,0.3130447268486023,0.00015780128887854517
1659027031618089700,6.03708984375,9.801665306091309,0.31262895464897156,0.0004166971775703132
1659027031627759400,6.04675927734375,9.801673889160156,0.31236279010772705,0.0005326859536580741
1659027031637429000,6.056428955078125,9.801674842834473,0.3123108744621277,0.0009525442728772759
1659027031647099000,6.066098876953125,9.801669120788574,0.31248992681503296,0.0019221636466681957
1659027031656768800,6.075768798828125,9.801658630371094,0.3128454387187958,0.0026607841718941927
1659027031666438400,6.0854384765625,9.80163288116455,0.3136424720287323,0.0033623110502958298
1659027031676108000,6.09510791015625,9.80160903930664,0.31435373425483704,0.0038450080901384354
1659027031685778000,6.10477783203125,9.801584243774414,0.3151397705078125,0.003979567904025316
1659027031695447600,6.114447509765625,9.801566123962402,0.3156988322734833,0.004155200906097889
1659027031705117400,6.124117431640625,9.801562309265137,0.3158225119113922,0.004451182205229998
1659027031714787000,6.133787109375,9.80156135559082,0.31585341691970825,0.004564900416880846
1659027031724457000,6.14345703125,9.801581382751465,0.31521347165107727,0.004493932239711285
1659027031734126600,6.153126708984375,9.801603317260742,0.3145463168621063,0.004371148534119129
1659027031743796500,6.16279638671875,9.801619529724121,0.314045250415802,0.004202609416097403
1659027031753466000,6.172466064453125,9.801631927490234,0.31368058919906616,0.003997975029051304
1659027031763135700,6.1821357421875,9.801647186279297,0.3131886124610901,0.003533450420945883
1659027031772805600,6.1918056640625,9.801658630371094,0.31283968687057495,0.0030548404902219772
1659027031782475500,6.2014755859375,9.80166244506836,0.31270918250083923,0.0026137034874409437
1659027031792145200,6.211145263671875,9.801650047302246,0.313109427690506,0.0022774829994887114
1659027031801815000,6.22081494140625,9.801630973815918,0.3137262463569641,0.0022032037377357483
1659027031811484700,6.230484619140625,9.801600456237793,0.31467437744140625,0.002270522527396679
1659027031821154300,6.240154296875,9.801573753356934,0.3154999315738678,0.002433116314932704
1659027031830824200,6.24982421875,9.801560401916504,0.3158714175224304,0.0024452204816043377
1659027031840493800,6.259493896484375,9.801559448242188,0.3159235417842865,0.0023422646336257458
1659027031850163700,6.269163818359375,9.801568984985352,0.3156510591506958,0.0023214826360344887
1659027031859833300,6.278833251953125,9.801584243774414,0.3151637315750122,0.0022895527072250843
1659027031869503200,6.288503173828125,9.801607131958008,0.31444668769836426,0.00235587521456182
1659027031879172900,6.2981728515625,9.80162525177002,0.31389105319976807,0.00260546850040555
1659027031888842800,6.3078427734375,9.8016357421875,0.3135529160499573,0.0027078234124928713
1659027031898512400,6.317512451171875,9.801644325256348,0.3132783770561218,0.002680300734937191
1659027031908182300,6.327182373046875,9.801641464233398,0.31338071823120117,0.002768097445368767
1659027031917852000,6.336851806640625,9.80163860321045,0.31344035267829895,0.00302325701341033
1659027031927521800,6.346521728515625,9.801630020141602,0.313707560300827,0.0032617964316159487
1659027031937191400,6.35619140625,9.801612854003906,0.3142284154891968,0.003368067555129528
1659027031946861000,6.365861083984375,9.801600456237793,0.31465741991996765,0.0037518800236284733
1659027031956531000,6.375531005859375,9.801586151123047,0.3150915205478668,0.003929721657186747
1659027031966200600,6.38520068359375,9.801586151123047,0.31508684158325195,0.004224301315844059
1659027031975870500,6.394870361328125,9.801594734191895,0.31484246253967285,0.004265384748578072
1659027031985540400,6.404540283203125,9.801591873168945,0.3148843050003052,0.004688488785177469
1659027031995210000,6.4142099609375,9.801595687866211,0.31478962302207947,0.0047606793232262135
1659027032004879600,6.423879638671875,9.80161190032959,0.3142738342285156,0.004483978264033794
1659027032014549500,6.433549560546875,9.801619529724121,0.31404274702072144,0.004459085874259472
1659027032024219100,6.44321923828125,9.801620483398438,0.31402814388275146,0.004454664420336485
1659027032033889000,6.452888916015625,9.801621437072754,0.31398263573646545,0.004451941233128309
1659027032043559000,6.462558837890625,9.801615715026855,0.31413570046424866,0.004379794467240572
1659027032053228500,6.472228515625,9.801615715026855,0.3141716718673706,0.004399106837809086
1659027032062898200,6.481898193359375,9.80161190032959,0.3142598867416382,0.004455966409295797
1659027032072568000,6.491568115234375,9.801603317260742,0.3145330250263214,0.0042419834062457085
1659027032082237700,6.50123779296875,9.801593780517578,0.3148428201675415,0.003909211605787277
1659027032091907600,6.510907470703125,9.801582336425781,0.31520557403564453,0.0036408083979040384
1659027032101577200,6.5205771484375,9.801575660705566,0.31541094183921814,0.0032999191898852587
1659027032111247000,6.5302470703125,9.801576614379883,0.31539133191108704,0.002745437901467085
1659027032120916700,6.539916748046875,9.801578521728516,0.31536534428596497,0.002342751482501626
1659027032130586400,6.54958642578125,9.801580429077148,0.31526869535446167,0.002037827158346772
1659027032140256300,6.55925634765625,9.801580429077148,0.3152914345264435,0.0017114083748310804
1659027032149926000,6.56892578125,9.801580429077148,0.3153151273727417,0.001702091540209949
1659027032159595800,6.578595703125,9.80158805847168,0.3150682747364044,0.001561625744216144
1659027032169265700,6.588265625,9.801599502563477,0.31469401717185974,0.0013788992073386908
1659027032178935300,6.597935302734375,9.801594734191895,0.3148363530635834,0.0012087073409929872
1659027032188605000,6.60760498046875,9.801604270935059,0.3145461082458496,0.0010955778416246176
1659027032198274800,6.61727490234375,9.801607131958008,0.31444746255874634,0.0009442176087759435
1659027032207944400,6.6269443359375,9.801605224609375,0.3145163655281067,0.0009009436471387744
1659027032217614300,6.6366142578125,9.80160140991211,0.3146560788154602,0.0008604230242781341
1659027032227284000,6.646283935546875,9.801600456237793,0.3146683871746063,0.0007636169320903718
1659027032236953900,6.655953857421875,9.801605224609375,0.3145289421081543,0.0008506810991093516
1659027032246623500,6.66562353515625,9.801606178283691,0.31446418166160583,0.000932624563574791
1659027032256293400,6.67529345703125,9.801600456237793,0.3146476447582245,0.0011622959282249212
1659027032265963000,6.684962890625,9.801600456237793,0.314639151096344,0.0013815463753417134
1659027032275633000,6.6946328125,9.801606178283691,0.31450825929641724,0.0017537960084155202
1659027032285302500,6.704302490234375,9.80160903930664,0.31439119577407837,0.0019441621843725443
1659027032294972400,6.713972412109375,9.801612854003906,0.3142598271369934,0.00206108670681715
1659027032304642000,6.72364208984375,9.801613807678223,0.3142421543598175,0.002436402253806591
1659027032314311700,6.733311767578125,9.80162239074707,0.313970685005188,0.0028274953365325928
1659027032323981600,6.742981689453125,9.801631927490234,0.31368663907051086,0.003201583866029978
1659027032333651200,6.752651123046875,9.801633834838867,0.31362679600715637,0.0035058700013905764
1659027032343321000,6.762321044921875,9.801623344421387,0.31392669677734375,0.0038676196709275246
1659027032352991000,6.771990966796875,9.801616668701172,0.3141133487224579,0.0041730948723852634
1659027032362660600,6.78166064453125,9.801613807678223,0.314222127199173,0.004313493613153696
1659027032372330200,6.791330322265625,9.801606178283691,0.3144499659538269,0.004618691746145487
1659027032382000000,6.801000244140625,9.801607131958008,0.314464271068573,0.0046668932773172855
1659027032391669800,6.810669677734375,9.801605224609375,0.3144679069519043,0.0047638555988669395
1659027032401339600,6.820339599609375,9.801599502563477,0.31466203927993774,0.004920001607388258
1659027032411009500,6.830009521484375,9.801595687866211,0.3147978186607361,0.004916801583021879
1659027032420679200,6.83967919921875,9.80158805847168,0.31503888964653015,0.004660909529775381
1659027032430348800,6.849348876953125,9.801593780517578,0.3148186206817627,0.004214776214212179
1659027032440018700,6.859018798828125,9.801600456237793,0.3146188259124756,0.003591818967834115
1659027032449688300,6.868688232421875,9.801606178283691,0.3144907057285309,0.002957283752039075
1659027032459358200,6.878358154296875,9.801606178283691,0.3144678473472595,0.0021291717421263456
1659027032469027800,6.88802783203125,9.801615715026855,0.3141805827617645,0.0015638023614883423
1659027032478697700,6.89769775390625,9.801623344421387,0.3139480948448181,0.0010344826150685549
1659027032488367400,6.907367431640625,9.801626205444336,0.31384679675102234,0.000628792098723352
1659027032498037000,6.917037109375,9.801626205444336,0.3138458728790283,0.00009584327199263498
1659027032507707000,6.926706787109375,9.801618576049805,0.31411248445510864,-0.0003681336820591241
1659027032517376800,6.936376708984375,9.801623344421387,0.3139245808124542,-0.0005423680413514376
1659027032527046400,6.94604638671875,9.801620483398438,0.31406283378601074,-0.0007374263950623572
1659027032536716300,6.95571630859375,9.801619529724121,0.3140556216239929,-0.0005702405469492078
1659027032546386000,6.965385986328125,9.801623344421387,0.3139479160308838,-0.00037737423554062843
1659027032556055600,6.9750556640625,9.801629066467285,0.31380319595336914,-0.00012588519894052297
1659027032565725400,6.984725341796875,9.801630020141602,0.3137282729148865,-0.00006009468052070588
1659027032575395000,6.99439501953125,9.801641464233398,0.31337037682533264,0.0001908687991090119
1659027032585065000,7.00406494140625,9.801647186279297,0.3132091164588928,0.0006876300903968513
1659027032594734800,7.01373486328125,9.801661491394043,0.3127482533454895,0.0010775179835036397
1659027032604404500,7.023404541015625,9.801677703857422,0.31225231289863586,0.001725928857922554
1659027032614074000,7.03307421875,9.801685333251953,0.31197842955589294,0.0021725143305957317
1659027032623744000,7.042743896484375,9.80168628692627,0.3119666278362274,0.002700826618820429
1659027032633413600,7.05241357421875,9.801677703857422,0.3122083246707916,0.003489007707685232
1659027032643083500,7.06208349609375,9.801669120788574,0.3124973475933075,0.004138684365898371
1659027032652753200,7.071753173828125,9.801653861999512,0.3129707872867584,0.00460451515391469
1659027032662423000,7.081423095703125,9.8016357421875,0.3135319650173187,0.005231855902820826
1659027032672092700,7.0910927734375,9.801627159118652,0.31379902362823486,0.0055029853247106075
1659027032681762600,7.100762451171875,9.801623344421387,0.31389573216438293,0.0056296163238584995
1659027032691432200,7.11043212890625,9.80162239074707,0.3139234781265259,0.005626995116472244
1659027032701102000,7.12010205078125,9.801630020141602,0.31370750069618225,0.005431587807834148
1659027032710771700,7.129771728515625,9.801637649536133,0.3134477138519287,0.005028574261814356
1659027032720441600,7.139441650390625,9.80164909362793,0.31311991810798645,0.004462409298866987
1659027032730111200,7.149111328125,9.80166244506836,0.3127064108848572,0.004019591957330704
1659027032739780900,7.15878076171875,9.801675796508789,0.3122763931751251,0.0036184622440487146
1659027032749450800,7.16845068359375,9.801675796508789,0.3122752010822296,0.0032031135633587837
1659027032759120600,7.17812060546875,9.801673889160156,0.3123502731323242,0.002897094003856182
1659027032768790300,7.187790283203125,9.801669120788574,0.3124857246875763,0.002716708229854703
1659027032778460200,7.197460205078125,9.801669120788574,0.3124864399433136,0.002169966697692871
1659027032788129800,7.2071298828125,9.801674842834473,0.3123666048049927,0.0017206481425091624
1659027032797799400,7.21679931640625,9.801669120788574,0.3125210702419281,0.001337569672614336
1659027032807469300,7.22646923828125,9.801671028137207,0.3124452233314514,0.0008725840016268194
1659027032817139200,7.23613916015625,9.801677703857422,0.3122673034667969,0.0006130838301032782
1659027032826808800,7.245808837890625,9.80168628692627,0.31198129057884216,0.00043862819438800216
1659027032836478500,7.255478515625,9.801695823669434,0.31168583035469055,0.00030606778454966843
1659027032846148400,7.2651484375,9.801706314086914,0.3113696277141571,0.0002897992671933025
1659027032855818000,7.27481787109375,9.801718711853027,0.310941606760025,0.0003233198949601501
1659027032865488000,7.28448779296875,9.801730155944824,0.31058648228645325,0.0006972734699957073
1659027032875157800,7.29415771484375,9.801738739013672,0.3103195130825043,0.0011219525476917624
1659027032884827400,7.303827392578125,9.801753997802734,0.30984944105148315,0.0016895215958356857
1659027032894497000,7.3134970703125,9.801761627197266,0.3096080720424652,0.002497586654499173
1659027032904167000,7.3231669921875,9.801763534545898,0.30952098965644836,0.0032712663523852825
1659027032913836500,7.33283642578125,9.8017578125,0.30970144271850586,0.004261890426278114
1659027032923506400,7.34250634765625,9.801755905151367,0.3097488582134247,0.004896802362054586
1659027032933176000,7.352176025390625,9.801750183105469,0.3099234998226166,0.005605831276625395
1659027032942846000,7.361845947265625,9.801737785339355,0.3103066682815552,0.006226989906281233
1659027032952515600,7.371515625,9.801734924316406,0.310390442609787,0.006620429456233978
1659027032962185500,7.381185546875,9.801742553710938,0.31014612317085266,0.006845791358500719
1659027032971855000,7.390855224609375,9.801737785339355,0.3103029131889343,0.006792556028813124
1659027032981525000,7.40052490234375,9.801739692687988,0.3102194666862488,0.006734335795044899
1659027032991194600,7.410194580078125,9.801743507385254,0.3101063072681427,0.0065565393306314945
1659027033000864500,7.419864501953125,9.801746368408203,0.31005188822746277,0.006192971486598253
1659027033010534100,7.4295341796875,9.80174446105957,0.3100943863391876,0.005926491692662239
1659027033020203800,7.439203857421875,9.801734924316406,0.3104110360145569,0.005167913157492876
1659027033029873700,7.448873779296875,9.801732063293457,0.3104930818080902,0.004730848595499992
1659027033039543600,7.45854345703125,9.801738739013672,0.31028297543525696,0.004353020340204239
1659027033049213200,7.468213134765625,9.801739692687988,0.31030070781707764,0.003974944353103638
1659027033058883000,7.477883056640625,9.801740646362305,0.31027159094810486,0.003529985435307026
1659027033068552700,7.487552734375,9.8017578125,0.309699684381485,0.00328232953324914
1659027033078222300,7.497222412109375,9.801765441894531,0.3094577193260193,0.0030862886924296618
1659027033087892200,7.506892333984375,9.801764488220215,0.3095080852508545,0.002988496096804738
1659027033097562000,7.51656201171875,9.801755905151367,0.3097759187221527,0.00330026401206851
1659027033107231700,7.526231689453125,9.801742553710938,0.3101990222930908,0.003575615119189024
1659027033116901400,7.5359013671875,9.801725387573242,0.3107090890407562,0.003989817574620247
1659027033126571300,7.5455712890625,9.801713943481445,0.3110882639884949,0.004251244943588972
1659027033136241000,7.555240966796875,9.801690101623535,0.3118380010128021,0.004669928457587957
1659027033145910800,7.564910888671875,9.801671981811523,0.3123825192451477,0.0051802098751068115
1659027033155580700,7.57458056640625,9.80165958404541,0.3127487003803253,0.005473964381963015
1659027033165250300,7.584250244140625,9.801652908325195,0.3129853904247284,0.005722027271986008
1659027033174920000,7.593919921875,9.801652908325195,0.3129466474056244,0.005555369891226292
1659027033184589800,7.60358984375,9.801655769348145,0.3129216432571411,0.005380142945796251
1659027033194259500,7.613259521484375,9.801650047302246,0.31307220458984375,0.00525805726647377
1659027033203929300,7.622929443359375,9.801647186279297,0.3131699860095978,0.004760016221553087
1659027033213599000,7.632598876953125,9.801642417907715,0.3133279085159302,0.00414428161457181
1659027033223268900,7.642268798828125,9.801641464233398,0.3133481442928314,0.003381847171112895
1659027033232938500,7.6519384765625,9.801640510559082,0.3133980631828308,0.0027621497865766287
1659027033242608400,7.6616083984375,9.801643371582031,0.3133227229118347,0.0022040288895368576
1659027033252278000,7.671278076171875,9.801637649536133,0.3134925365447998,0.001696048304438591
1659027033261948000,7.680947998046875,9.801648139953613,0.31317004561424255,0.001328288926742971
1659027033271617500,7.690617431640625,9.801637649536133,0.31352174282073975,0.001106840092688799
1659027033281287400,7.700287353515625,9.801639556884766,0.313429057598114,0.0007552244933322072
1659027033290957000,7.70995703125,9.801636695861816,0.31351998448371887,0.0005017020157538354
1659027033300627000,7.719626953125,9.801640510559082,0.31338706612586975,0.0003254391485825181
1659027033310296600,7.729296630859375,9.80167007446289,0.3125120997428894,0.0002612871176097542
1659027033319966500,7.738966552734375,9.8016996383667,0.31158727407455444,0.00023042219982016832
1659027033329636000,7.748635986328125,9.80172061920166,0.3108901083469391,0.0007217507809400558
1659027033339306000,7.758305908203125,9.801726341247559,0.3107181787490845,0.001226268708705902
1659027033348975600,7.7679755859375,9.801714897155762,0.3110814392566681,0.0020881034433841705
1659027033358645500,7.7776455078125,9.801691055297852,0.3118303120136261,0.0030841089319437742
1659027033368315100,7.787315185546875,9.801676750183105,0.31224942207336426,0.0035936031490564346
1659027033377985000,7.796985107421875,9.801675796508789,0.3122939169406891,0.004042529035359621
1659027033387654700,7.806654541015625,9.801682472229004,0.3120839297771454,0.004411458037793636
1659027033397324300,7.81632421875,9.8016996383667,0.31154119968414307,0.004693939816206694
1659027033406994200,7.825994140625,9.801711082458496,0.31114479899406433,0.00507354736328125
1659027033416664000,7.8356640625,9.801712989807129,0.31106850504875183,0.0056966147385537624
1659027033426333700,7.845333740234375,9.801708221435547,0.311250776052475,0.006254727486521006
1659027033436003600,7.855003662109375,9.801703453063965,0.3113594353199005,0.006900489795953035
1659027033445673200,7.864673095703125,9.801704406738281,0.31133371591567993,0.007040790282189846
1659027033455342800,7.8743427734375,9.801704406738281,0.31133556365966797,0.006810860708355904
1659027033465012700,7.8840126953125,9.801719665527344,0.31089386343955994,0.006468951236456633
1659027033474682600,7.8936826171875,9.801718711853027,0.3109179437160492,0.005900201853364706
1659027033484352300,7.903352294921875,9.801700592041016,0.3114980459213257,0.005555514246225357
1659027033494022000,7.91302197265625,9.801687240600586,0.3118932843208313,0.005080079194158316
1659027033503691800,7.92269189453125,9.801675796508789,0.3122834861278534,0.004638394340872765
1659027033513361400,7.932361328125,9.801689147949219,0.3118661940097809,0.004039750434458256
1659027033523031300,7.94203125,9.801716804504395,0.31101664900779724,0.0032315754797309637
1659027033532701200,7.951701171875,9.801746368408203,0.3100548982620239,0.0026660265866667032
1659027033542370800,7.961370849609375,9.80177116394043,0.30928048491477966,0.002152524422854185
1659027033552040400,7.97104052734375,9.801770210266113,0.3093115985393524,0.001779843121767044
1659027033561710300,7.98071044921875,9.80175495147705,0.3098309338092804,0.0013230472104623914
1659027033571380000,7.9903798828125,9.80172348022461,0.31080374121665955,0.0008292188285849988
1659027033581049900,8.0000498046875,9.801703453063965,0.31145960092544556,0.0006733308546245098
1659027033590719700,8.0097197265625,9.8016996383667,0.3115800619125366,0.0004296606930438429
1659027033600389400,8.019389404296875,9.801703453063965,0.31144213676452637,0.0004884680383838713
1659027033610059000,8.02905908203125,9.801697731018066,0.31160467863082886,0.0006516595021821558
1659027033619729000,8.03872900390625,9.80168628692627,0.31197842955589294,0.0008699526078999043
1659027033629398800,8.048398681640625,9.801671981811523,0.312444806098938,0.001242294441908598
1659027033639068400,8.058068359375,9.801647186279297,0.3131813108921051,0.001900260685943067
1659027033648738000,8.067738037109375,9.80161190032959,0.3142895996570587,0.0025121120270341635
1659027033658408000,8.077407958984375,9.801589965820312,0.3149871230125427,0.0029772587586194277
1659027033668077600,8.08707763671875,9.801578521728516,0.3153264820575714,0.0032018376514315605
1659027033677747500,8.09674755859375,9.80158519744873,0.31511011719703674,0.003819316392764449
1659027033687417300,8.106417236328125,9.801606178283691,0.31445956230163574,0.00423412024974823
1659027033697087000,8.1160869140625,9.8016357421875,0.31353244185447693,0.004523581825196743
1659027033706756600,8.125756591796875,9.801660537719727,0.3127867877483368,0.004795626737177372
1659027033716426500,8.135426513671876,9.80165958404541,0.3127795159816742,0.00506780669093132
1659027033726096100,8.14509619140625,9.801644325256348,0.31325703859329224,0.005387742072343826
1659027033735766000,8.15476611328125,9.80162239074707,0.31395307183265686,0.005423742346465588
1659027033745435600,8.164435546875,9.801617622375488,0.3140767216682434,0.005386486183851957
1659027033755105500,8.17410546875,9.801631927490234,0.313642680644989,0.005126486532390118
1659027033764775200,8.183775146484376,9.801647186279297,0.3131648004055023,0.004819870460778475
1659027033774445000,8.193445068359376,9.80164909362793,0.31312867999076843,0.004339913371950388
1659027033784114700,8.20311474609375,9.801657676696777,0.312844455242157,0.0039003000129014254
1659027033793784600,8.21278466796875,9.801663398742676,0.3126984238624573,0.0035383051726967096
1659027033803454200,8.2224541015625,9.801671028137207,0.3124420940876007,0.003035214263945818
1659027033813124000,8.2321240234375,9.801681518554688,0.31210699677467346,0.00274005439132452
1659027033822793700,8.241793701171876,9.801692962646484,0.31175553798675537,0.002367795677855611
1659027033832463600,8.251463623046876,9.8016996383667,0.31154462695121765,0.002376145450398326
1659027033842133200,8.26113330078125,9.801700592041016,0.3115306496620178,0.002156226895749569
1659027033851803100,8.27080322265625,9.801689147949219,0.3118586838245392,0.0021148775704205036
1659027033861472800,8.28047265625,9.801663398742676,0.312718003988266,0.0025018344167619944
1659027033871142700,8.290142578125,9.801630020141602,0.3137202560901642,0.002797502325847745
1659027033880812300,8.299812255859376,9.801600456237793,0.31462547183036804,0.003296332433819771
1659027033890482200,8.309482177734376,9.80157470703125,0.3154377043247223,0.003696420229971409
1659027033900151800,8.31915185546875,9.80156421661377,0.3157782256603241,0.00363647541962564
1659027033909821700,8.32882177734375,9.801565170288086,0.315765917301178,0.004044812638312578
1659027033919491300,8.3384912109375,9.80156135559082,0.3158574104309082,0.004197815898805857
1659027033929161200,8.3481611328125,9.801567077636719,0.31566786766052246,0.004164377227425575
1659027033938830800,8.357830810546876,9.801573753356934,0.31545597314834595,0.003945535980165005
1659027033948500700,8.367500732421876,9.801583290100098,0.31518179178237915,0.003940096590667963
1659027033958170400,8.37717041015625,9.801605224609375,0.31450605392456055,0.0037481056060642004
1659027033967840300,8.38684033203125,9.801616668701172,0.3141753673553467,0.0034764553420245647
1659027033977510000,8.396510009765626,9.801636695861816,0.3135283291339874,0.0034868880175054073
1659027033987179800,8.4061796875,9.801648139953613,0.3131697177886963,0.00353148952126503
1659027033996849400,8.415849365234376,9.801648139953613,0.3131469786167145,0.003559256438165903
1659027034006519300,8.425519287109376,9.801634788513184,0.3136086165904999,0.0034775848034769297
1659027034016189000,8.43518896484375,9.801620483398438,0.31402671337127686,0.003139542881399393
1659027034025858600,8.444858642578126,9.801602363586426,0.31461265683174133,0.0027954617980867624
1659027034035528400,8.454528564453126,9.801596641540527,0.314792275428772,0.0024644355289638042
1659027034045198300,8.4641982421875,9.80159854888916,0.3146984577178955,0.0023688627406954765
1659027034054868000,8.473867919921876,9.801604270935059,0.31456440687179565,0.0020434425678104162
1659027034064537900,8.483537841796876,9.801620483398438,0.31404560804367065,0.001974303275346756
1659027034074207500,8.49320751953125,9.801639556884766,0.31345370411872864,0.0018808996537700295
1659027034083877000,8.502877197265626,9.801651000976562,0.3131101131439209,0.0018480077851563692
1659027034093547000,8.512547119140624,9.801660537719727,0.3127729296684265,0.00171391642652452
1659027034103217000,8.522216796875,9.801668167114258,0.31253311038017273,0.001636279746890068
1659027034112886500,8.531886474609376,9.801679611206055,0.31217917799949646,0.0019339771242812276
1659027034122556200,8.54155615234375,9.801687240600586,0.31194353103637695,0.0022541170474141836
1659027034132226000,8.55122607421875,9.801688194274902,0.31191563606262207,0.002395941410213709
1659027034141896000,8.56089599609375,9.801675796508789,0.3122785687446594,0.0026390417478978634
1659027034151565600,8.570565673828124,9.801671028137207,0.3124690353870392,0.003038509050384164
1659027034161235500,8.5802353515625,9.80167007446289,0.3124619722366333,0.0033275887835770845
1659027034170905000,8.589905029296874,9.801664352416992,0.31264322996139526,0.003542395308613777
1659027034180574700,8.59957470703125,9.801663398742676,0.31268295645713806,0.0037320279516279697
1659027034190244600,8.60924462890625,9.801675796508789,0.31228500604629517,0.004086735658347607
1659027034199914500,8.61891455078125,9.801694869995117,0.3116859197616577,0.0041603511199355125
1659027034209584000,8.628584228515624,9.801717758178711,0.31097185611724854,0.004173018038272858
1659027034219253800,8.638253662109374,9.801749229431152,0.3099810779094696,0.004426887258887291
1659027034228923600,8.647923583984374,9.80178165435791,0.30895477533340454,0.0044086771085858345
1659027034238593300,8.65759326171875,9.801807403564453,0.3081318736076355,0.004294135607779026
1659027034248263200,8.66726318359375,9.801834106445312,0.30728310346603394,0.004133129958063364
1659027034257933000,8.67693310546875,9.801851272583008,0.3067629039287567,0.004121957812458277
1659027034267602700,8.686602783203124,9.801860809326172,0.30639970302581787,0.00429022591561079
1659027034277272300,8.696272216796874,9.801876068115234,0.30595096945762634,0.004367868881672621
1659027034286942200,8.705942138671874,9.801876068115234,0.30592089891433716,0.004604505840688944
1659027034296612000,8.715612060546874,9.801862716674805,0.30637866258621216,0.0046329377219080925
1659027034306281700,8.72528173828125,9.801837921142578,0.3071305453777313,0.004817889537662268
1659027034315951600,8.73495166015625,9.801815032958984,0.30786949396133423,0.00516421627253294
1659027034325621200,8.744621337890624,9.801801681518555,0.3082676827907562,0.00540300365537405
1659027034335291000,8.754290771484374,9.801785469055176,0.30882585048675537,0.0054128156043589115
1659027034344960800,8.763960693359374,9.801778793334961,0.3090245723724365,0.005362510681152344
1659027034354630700,8.773630615234374,9.801775932312012,0.3091047704219818,0.0052132620476186275
1659027034364300300,8.78330029296875,9.801786422729492,0.3088030517101288,0.005070304032415152
1659027034373970000,8.792969970703124,9.801804542541504,0.30816832184791565,0.005036370363086462
1659027034383639800,8.802639892578124,9.801830291748047,0.3074057102203369,0.004862404428422451
1659027034393309700,8.812309814453124,9.801850318908691,0.3067379593849182,0.004677256569266319
1659027034402979300,8.821979248046874,9.801858901977539,0.306471049785614,0.0044931876473128796
1659027034412649200,8.831649169921874,9.801859855651855,0.3064606785774231,0.004398547578603029
1659027034422318800,8.84131884765625,9.80185604095459,0.30657464265823364,0.00419530738145113
1659027034431988500,8.850988525390624,9.801841735839844,0.30703243613243103,0.0043333531357347965
1659027034441658400,8.860658447265624,9.801828384399414,0.3074687421321869,0.004357842728495598
1659027034451328300,8.870328369140625,9.801815032958984,0.30788224935531616,0.004429434426128864
1659027034460998000,8.879997802734374,9.80180549621582,0.30818700790405273,0.0047213532961905
1659027034470667500,8.88966748046875,9.801804542541504,0.3081996738910675,0.0048259105533361435
1659027034480337400,8.89933740234375,9.8018159866333,0.3078352212905884,0.004957328550517559
1659027034490007000,8.909007080078124,9.801828384399414,0.30744484066963196,0.0047239274717867374
1659027034499677000,8.918677001953125,9.801848411560059,0.3068240284919739,0.004772021900862455
1659027034509346800,8.928346923828125,9.801859855651855,0.30644741654396057,0.004591393284499645
1659027034519016400,8.938016357421875,9.80186939239502,0.30615735054016113,0.0045355320908129215
1659027034528686000,8.94768603515625,9.801880836486816,0.3058004081249237,0.004112666938453913
1659027034538356000,8.95735595703125,9.801881790161133,0.30575552582740784,0.004233514424413443
1659027034548025900,8.96702587890625,9.801875114440918,0.30595293641090393,0.00397223187610507
1659027034557695500,8.976695556640625,9.801865577697754,0.3062598407268524,0.003838795470073819
1659027034567365000,8.986365234375,9.801848411560059,0.306849867105484,0.003559202654287219
1659027034577035000,8.996034912109375,9.8018217086792,0.3076803982257843,0.003317339112982154
1659027034586704600,9.00570458984375,9.801794052124023,0.3085862696170807,0.0030529024079442024
1659027034596374500,9.01537451171875,9.801770210266113,0.3092975318431854,0.002859541680663824
1659027034606044400,9.02504443359375,9.801765441894531,0.30948951840400696,0.002751873107627034
1659027034615714000,9.034714111328125,9.80176830291748,0.30939799547195435,0.0025631857570260763
1659027034625383700,9.0443837890625,9.801774024963379,0.3092215955257416,0.002684597158804536
1659027034635053600,9.054053466796875,9.80178451538086,0.30886372923851013,0.00276996404863894
1659027034644723500,9.063723388671875,9.801797866821289,0.3084506094455719,0.002695473376661539
1659027034654393000,9.07339306640625,9.80180835723877,0.308132529258728,0.0028948227409273386
1659027034664062700,9.083062744140625,9.801826477050781,0.3075237572193146,0.002718673087656498
1659027034673732600,9.092732666015625,9.801841735839844,0.30703985691070557,0.002652787836268544
1659027034683402200,9.10240234375,9.801862716674805,0.3063972294330597,0.002387517597526312
1659027034693072100,9.112072021484375,9.801872253417969,0.30605411529541016,0.002187251579016447
1659027034702742000,9.121741943359375,9.80187702178955,0.3059391677379608,0.0020701191388070583
1659027034712411600,9.13141162109375,9.801878929138184,0.30588629841804504,0.001776402466930449
1659027034722081300,9.141081298828125,9.801873207092285,0.30603304505348206,0.0017653575632721186
1659027034731751200,9.150751220703125,9.801865577697754,0.3063179552555084,0.0020021626260131598
1659027034741421000,9.160421142578125,9.801857948303223,0.30655571818351746,0.0024764027912169695
1659027034751090700,9.170090576171875,9.80184555053711,0.3069167733192444,0.002691742032766342
1659027034760760600,9.179760498046875,9.801840782165527,0.3071017861366272,0.0030259520281106234
1659027034770430200,9.18943017578125,9.801824569702148,0.307573527097702,0.0034633809700608253
1659027034780099800,9.199099853515625,9.801823616027832,0.30759763717651367,0.003943766001611948
1659027034789769700,9.208769775390625,9.801812171936035,0.30798080563545227,0.004311901051551104
1659027034799439600,9.218439697265625,9.801810264587402,0.3080289363861084,0.004556776024401188
1659027034809109200,9.228109130859375,9.801810264587402,0.3080311119556427,0.005004952196031809
1659027034818779000,9.23777880859375,9.801810264587402,0.30803799629211426,0.005480829626321793
1659027034828448800,9.24744873046875,9.801807403564453,0.3080654740333557,0.005768880248069763
1659027034838118700,9.25711865234375,9.801812171936035,0.30794912576675415,0.0060509806498885155
1659027034847788300,9.266788330078125,9.801804542541504,0.3082073926925659,0.0062121255323290825
1659027034857458200,9.276458251953125,9.801788330078125,0.3086822032928467,0.006249247584491968
1659027034867127800,9.2861279296875,9.801774978637695,0.3091523349285126,0.006248438730835915
1659027034876797400,9.29579736328125,9.801759719848633,0.30959200859069824,0.006060627289116383
1659027034886467300,9.30546728515625,9.801746368408203,0.310006320476532,0.005907381884753704
1659027034896137200,9.31513720703125,9.801737785339355,0.3103325068950653,0.005359672009944916
1659027034905806800,9.324806884765625,9.801741600036621,0.3101881146430969,0.00478496216237545
1659027034915476500,9.3344765625,9.80174446105957,0.3101451098918915,0.004258916713297367
1659027034925146400,9.344146484375,9.801751136779785,0.3099271059036255,0.003661999711766839
1659027034934816300,9.353816162109375,9.801759719848633,0.3096456527709961,0.00291348434984684
1659027034944486000,9.36348583984375,9.801777839660645,0.30910107493400574,0.0020785511005669832
1659027034954155800,9.37315576171875,9.80179500579834,0.3085506558418274,0.0016081349458545446
1659027034963825400,9.382825439453125,9.801803588867188,0.3082726299762726,0.0011047011939808726
1659027034973495000,9.3924951171875,9.801804542541504,0.30821871757507324,0.0007768900832161307
1659027034983165000,9.4021650390625,9.801800727844238,0.30838099122047424,0.0007955944747664034
1659027034992834800,9.411834716796875,9.801782608032227,0.308943510055542,0.0008603351889178157
1659027035002504400,9.42150439453125,9.80175495147705,0.3098377585411072,0.001064519165083766
1659027035012174000,9.431174072265625,9.801734924316406,0.31043726205825806,0.001534058479592204
1659027035021844000,9.440843994140625,9.801716804504395,0.31103432178497314,0.0019359299913048744
1659027035031513900,9.450513916015625,9.8016996383667,0.31152617931365967,0.002370394067838788
1659027035041183500,9.46018359375,9.801697731018066,0.3116115629673004,0.002549475524574518
1659027035050853400,9.469853271484375,9.8016939163208,0.3117189109325409,0.0028822082094848156
1659027035060523000,9.47952294921875,9.801702499389648,0.31146004796028137,0.003229159163311124
1659027035070192600,9.489192626953125,9.801727294921875,0.3106801211833954,0.0036082558799535036
1659027035079862500,9.498862548828125,9.80174732208252,0.31003719568252563,0.004138981457799673
1659027035089532400,9.508532470703125,9.801761627197266,0.3095560073852539,0.004531031008809805
1659027035099202000,9.5182021484375,9.801777839660645,0.3090973198413849,0.0045130071230232716
1659027035108871700,9.52787158203125,9.801788330078125,0.30870306491851807,0.00441657705232501
1659027035118541600,9.53754150390625,9.801796913146973,0.30843690037727356,0.0044212923385202885
1659027035128211500,9.54721142578125,9.801799774169922,0.30837973952293396,0.004231667146086693
1659027035137881000,9.556881103515625,9.801800727844238,0.3083370625972748,0.004189212806522846
1659027035147551000,9.566551025390625,9.801804542541504,0.30823707580566406,0.00404089642688632
1659027035157220600,9.576220703125,9.80180835723877,0.3081014156341553,0.004023341927677393
1659027035166890500,9.585890380859375,9.801807403564453,0.30811774730682373,0.0038409396074712276
1659027035176560000,9.59556005859375,9.801803588867188,0.30824363231658936,0.0036299130879342556
1659027035186230000,9.60522998046875,9.801800727844238,0.3083576261997223,0.003350257407873869
1659027035195899600,9.614899658203125,9.801802635192871,0.3083066940307617,0.003071455517783761
1659027035205569500,9.624569580078125,9.80180835723877,0.30810052156448364,0.0027571730315685272
1659027035215239200,9.6342392578125,9.801819801330566,0.3077348470687866,0.0023568777833133936
1659027035224909000,9.643908935546875,9.801831245422363,0.30738574266433716,0.001963492948561907
1659027035234578700,9.65357861328125,9.801839828491211,0.3071308135986328,0.0017970636254176497
1659027035244248600,9.66324853515625,9.801844596862793,0.3069746494293213,0.0018130072858184576
1659027035253918200,9.672918212890625,9.801852226257324,0.3067033588886261,0.0015351971378549933
1659027035263588000,9.682588134765625,9.801850318908691,0.306781142950058,0.0016657955711707473
1659027035273257700,9.6922578125,9.801841735839844,0.3070496618747711,0.0019279676489531994
1659027035282927600,9.701927734375,9.801839828491211,0.30710718035697937,0.0021915691904723644
1659027035292597200,9.71159716796875,9.801828384399414,0.3074876666069031,0.0025418095756322145
1659027035302267100,9.72126708984375,9.801817893981934,0.3077917695045471,0.0028085405938327312
1659027035311936800,9.730936767578125,9.801813125610352,0.30794191360473633,0.003049900522455573
1659027035321606700,9.740606689453125,9.801802635192871,0.3083098828792572,0.0036366197746247053
1659027035331276300,9.7502763671875,9.801799774169922,0.30835437774658203,0.004151530098170042
1659027035340946200,9.7599462890625,9.801803588867188,0.30824750661849976,0.004333921708166599
1659027035350615800,9.76961572265625,9.80181884765625,0.3077544867992401,0.004593207500874996
1659027035360285700,9.77928564453125,9.801830291748047,0.3074004650115967,0.00474591413512826
1659027035369955300,9.788955322265625,9.80184555053711,0.30691635608673096,0.004834518302232027
1659027035379625200,9.798625244140625,9.801846504211426,0.3068786859512329,0.004903822671622038
1659027035389294800,9.808294921875,9.801855087280273,0.30661675333976746,0.005018450319766998
1659027035398964700,9.81796484375,9.801855087280273,0.30656275153160095,0.004864737391471863
1659027035408634400,9.82763427734375,9.801863670349121,0.30633655190467834,0.0044351308606565
1659027035418304300,9.83730419921875,9.801851272583008,0.30673274397850037,0.004230262711644173
1659027035427974000,9.846973876953125,9.80184268951416,0.3069817125797272,0.003873902140185237
1659027035437643800,9.856643798828125,9.801831245422363,0.3073677718639374,0.0034797247499227524
1659027035447313400,9.8663134765625,9.8018159866333,0.3078616261482239,0.0032309575472027063
1659027035456983300,9.8759833984375,9.801807403564453,0.30813756585121155,0.00296246656216681
1659027035466653000,9.88565283203125,9.801793098449707,0.3085848391056061,0.002524691866710782
1659027035476322800,9.89532275390625,9.801783561706543,0.308877557516098,0.0024401708506047726
1659027035485992400,9.904992431640625,9.801774024963379,0.30921652913093567,0.0023986129090189934
1659027035495662300,9.914662353515626,9.801774024963379,0.30919158458709717,0.00230942084454
1659027035505332000,9.92433203125,9.801777839660645,0.30907076597213745,0.0023426227271556854
1659027035515001900,9.934001953125,9.801783561706543,0.3088662028312683,0.0023087116423994303
1659027035524671500,9.94367138671875,9.801791191101074,0.3086587190628052,0.0021517418790608644
1659027035534341400,9.95334130859375,9.80179214477539,0.30865034461021423,0.00198897416703403
1659027035544011000,9.963010986328126,9.801794052124023,0.30856820940971375,0.0018717460334300995
1659027035553681000,9.972680908203126,9.801796913146973,0.30849045515060425,0.0019360155565664172
1659027035563350800,9.982350830078126,9.801794052124023,0.3085688650608063,0.001970666693523526
1659027035573020400,9.9920205078125,9.801791191101074,0.30867305397987366,0.0023021234665066004
1659027035582690000,10.00168994140625,9.801779747009277,0.30904677510261536,0.002200754126533866
1659027035592360000,10.01135986328125,9.801773071289062,0.3092440962791443,0.0020562505815178156
1659027035602029800,10.02102978515625,9.801759719848633,0.3096802830696106,0.0023741067852824926
1659027035611699500,10.030699462890626,9.801751136779785,0.30994123220443726,0.0026636766269803047
1659027035621369000,10.040369140625,9.80173110961914,0.31054168939590454,0.0028798559214919806
1659027035631039000,10.0500390625,9.801718711853027,0.3109397292137146,0.003090799320489168
1659027035640708600,10.05970849609375,9.801701545715332,0.3115023672580719,0.0029929617885500193
1659027035650378500,10.06937841796875,9.801678657531738,0.3122030198574066,0.0030970207881182432
1659027035660048400,10.07904833984375,9.801663398742676,0.31268349289894104,0.0029485581908375025
1659027035669718000,10.088718017578126,9.801655769348145,0.3129138946533203,0.00289086508564651
1659027035679387600,10.0983876953125,9.80164623260498,0.31320706009864807,0.002588314702734351
1659027035689057500,10.1080576171875,9.801630020141602,0.31371045112609863,0.0023049896117299795
1659027035698727400,10.1177275390625,9.801623344421387,0.31396588683128357,0.002040555002167821
1659027035708397000,10.12739697265625,9.801606178283691,0.31448277831077576,0.001928722602315247
1659027035718066700,10.137066650390626,9.801597595214844,0.31475672125816345,0.0015490883961319923
1659027035727736600,10.146736572265626,9.801592826843262,0.31490427255630493,0.0012156657176092267
1659027035737406500,10.156406494140626,9.801576614379883,0.315434068441391,0.0009761246619746089
1659027035747076000,10.166076171875,9.801567077636719,0.31572917103767395,0.0006465089973062277
1659027035756746000,10.17574609375,9.801562309265137,0.3158600628376007,0.00009811783820623532
1659027035766415600,10.18541552734375,9.80156421661377,0.3158069849014282,-0.0001503382809460163
1659027035776085500,10.19508544921875,9.801568031311035,0.31567153334617615,-0.00032536216895096004
1659027035785755100,10.204755126953126,9.801579475402832,0.3153321146965027,-0.0002618562721181661
1659027035795425000,10.214425048828126,9.801582336425781,0.3152409791946411,-0.0002859077649191022
1659027035805094700,10.2240947265625,9.801581382751465,0.31525954604148865,-0.00009187920659314841
1659027035814764300,10.233764404296876,9.801590919494629,0.31498295068740845,0.000007649113285879139
1659027035824434200,10.24343408203125,9.801592826843262,0.3149096369743347,0.00020914374908898026
1659027035834104000,10.25310400390625,9.801596641540527,0.31478825211524963,0.0006809724145568907
1659027035843773700,10.262773681640626,9.801587104797363,0.3150751292705536,0.0010593523038551211
1659027035853443600,10.272443603515624,9.801579475402832,0.3153015673160553,0.001309869228862226
1659027035863113200,10.28211328125,9.8015775680542,0.31536611914634705,0.0017434455221518874
1659027035872783000,10.291783203125,9.801569938659668,0.31562167406082153,0.002064151456579566
1659027035882452700,10.30145263671875,9.801569938659668,0.3156229853630066,0.002356898272410035
1659027035892122600,10.31112255859375,9.801568031311035,0.31567102670669556,0.002526837633922696
1659027035901792300,10.320792236328124,9.801567077636719,0.315669983625412,0.0025229479651898146
1659027035911462100,10.330462158203124,9.801560401916504,0.31592193245887756,0.0026692235842347145
1659027035921131800,10.3401318359375,9.801555633544922,0.3160543441772461,0.0026343625504523516
1659027035930801700,10.3498017578125,9.801546096801758,0.3163304030895233,0.002586709801107645
1659027035940471300,10.35947119140625,9.801536560058594,0.3166523575782776,0.002584644127637148
1659027035950141200,10.36914111328125,9.801533699035645,0.31674525141716003,0.0023781312629580498
1659027035959810800,10.378810791015624,9.801530838012695,0.3168140947818756,0.0020096951629966497
1659027035969480700,10.388480712890624,9.801528930664062,0.3168703019618988,0.001764295855537057
1659027035979150300,10.398150390625,9.801533699035645,0.31674331426620483,0.0014441077364608645
1659027035988820200,10.4078203125,9.80153751373291,0.31661757826805115,0.0010496366303414106
1659027035998489900,10.41748974609375,9.801544189453125,0.31643253564834595,0.0006521575269289315
1659027036008159700,10.42715966796875,9.801546096801758,0.31631967425346375,0.00009318234515376389
1659027036017829400,10.436829345703124,9.801553726196289,0.3161340653896332,-0.0002065203443635255
1659027036027499300,10.446499267578124,9.801565170288086,0.31579849123954773,-0.0005631106323562562
1659027036037169000,10.4561689453125,9.801573753356934,0.3154847025871277,-0.0009032731177285314
1659027036046838800,10.4658388671875,9.801578521728516,0.315363347530365,-0.0012462838785722852
1659027036056508400,10.47550830078125,9.801582336425781,0.3152430057525635,-0.0014098434476181865
1659027036066178300,10.48517822265625,9.80158805847168,0.31505364179611206,-0.0013596175704151392
1659027036075848000,10.494847900390624,9.80158519744873,0.315136194229126,-0.0011022081598639488
1659027036085517800,10.504517822265624,9.801583290100098,0.3151908218860626,-0.0007768715149722993
1659027036095187500,10.5141875,9.801580429077148,0.3152903914451599,-0.0004645456501748413
1659027036104857300,10.523857421875,9.801582336425781,0.31522220373153687,-0.00008328766125487164
1659027036114527200,10.53352734375,9.8015775680542,0.3154017925262451,0.00020712892001029104
1659027036124196900,10.54319677734375,9.801570892333984,0.3155743479728699,0.0007975881453603506
1659027036133866500,10.552866455078124,9.801570892333984,0.315574586391449,0.0010809425730258226
1659027036143536400,10.562536376953124,9.8015718460083,0.31556403636932373,0.0014602583833038807
1659027036153206300,10.572206298828124,9.801568031311035,0.31567198038101196,0.0016261065611615777
1659027036162876000,10.5818759765625,9.801567077636719,0.3157148063182831,0.0017396688926964998
1659027036172545500,10.591545654296874,9.801565170288086,0.31576108932495117,0.0018447795882821083
1659027036182215400,10.60121533203125,9.801565170288086,0.31577226519584656,0.0019243747228756547
1659027036191885300,10.61088525390625,9.801567077636719,0.3157004117965698,0.0016909627011045814
1659027036201555000,10.620554931640624,9.801566123962402,0.31573808193206787,0.001751377945765853
1659027036211224800,10.630224853515625,9.801563262939453,0.31580427289009094,0.001679608365520835
1659027036220894500,10.63989453125,9.80156421661377,0.31581100821495056,0.0015129130333662033
1659027036230564000,10.649564208984375,9.801557540893555,0.31599193811416626,0.001387045020237565
1659027036240234000,10.65923388671875,9.801556587219238,0.31603753566741943,0.00108476507011801
1659027036249903900,10.66890380859375,9.801555633544922,0.3160798251628876,0.0007694005616940558
1659027036259573500,10.678573486328125,9.801553726196289,0.3160942792892456,0.0004240534035488963
1659027036269243100,10.6882431640625,9.801553726196289,0.3161167800426483,0.0001757289282977581
1659027036278913000,10.6979130859375,9.801553726196289,0.31611475348472595,-0.0004465357924345881
1659027036288583000,10.7075830078125,9.801560401916504,0.31590545177459717,-0.0005700321635231376
1659027036298252500,10.71725244140625,9.801555633544922,0.31605201959609985,-0.00044533261097967625
1659027036307922400,10.72692236328125,9.801551818847656,0.3161555826663971,-0.0006174628506414592
1659027036317592000,10.736592041015625,9.801551818847656,0.3161766827106476,-0.0005967013421468437
1659027036327262000,10.746261962890625,9.80154800415039,0.31629177927970886,-0.0004479296621866524
1659027036336931600,10.755931640625,9.80154800415039,0.3162986934185028,-0.0003662881499622017
1659027036346601500,10.7656015625,9.801552772521973,0.31613123416900635,-0.00021285010734573007
1659027036356271000,10.77527099609375,9.801555633544922,0.31608089804649353,-0.000010602642760204617
1659027036365941000,10.78494091796875,9.801554679870605,0.3160859942436218,0.00017590141214895993
1659027036375610600,10.794610595703125,9.801555633544922,0.3160712718963623,0.0005570131470449269
1659027036385280500,10.804280517578125,9.801559448242188,0.31595757603645325,0.0010021873749792576
1659027036394950100,10.8139501953125,9.801554679870605,0.3161030113697052,0.0011442984687164426
1659027036404620000,10.8236201171875,9.801549911499023,0.3162134289741516,0.0013535241596400738
1659027036414289700,10.83328955078125,9.80155086517334,0.3162022829055786,0.0016989433206617832
1659027036423959600,10.84295947265625,9.801552772521973,0.316176176071167,0.0018200104823336005
1659027036433629200,10.852629150390625,9.801558494567871,0.3159950077533722,0.002243045251816511
1659027036443299000,10.862299072265625,9.801556587219238,0.3159988522529602,0.0023131005000323057
1659027036452968700,10.87196875,9.801553726196289,0.3161086440086365,0.0024923125747591257
1659027036462638600,10.881638671875,9.801555633544922,0.31605789065361023,0.002429908374324441
1659027036472308500,10.89130859375,9.801560401916504,0.3158944547176361,0.002295540180057287
1659027036481978000,10.90097802734375,9.801566123962402,0.3157462477684021,0.0021072998642921448
1659027036491647700,10.910647705078125,9.801570892333984,0.315572589635849,0.0018614110304042697
1659027036501317600,10.920317626953125,9.8015718460083,0.3155224025249481,0.001905684475786984
1659027036510987500,10.929987548828125,9.801562309265137,0.31584420800209045,0.001770475646480918
1659027036520657200,10.9396572265625,9.801553726196289,0.31608718633651733,0.0017297508893534541
1659027036530326800,10.949326904296875,9.80154037475586,0.3165294826030731,0.0012742433464154601
1659027036539996700,10.95899658203125,9.801531791687012,0.3167605698108673,0.0012731541646644473
1659027036549666300,10.968666259765625,9.801526069641113,0.31698763370513916,0.001134246587753296
1659027036559336200,10.978336181640625,9.801522254943848,0.3170855641365051,0.000986216589808464
1659027036569006000,10.988006103515625,9.80152416229248,0.31700950860977173,0.0010867845267057419
1659027036578675700,10.99767578125,9.80152416229248,0.31706658005714417,0.0010155144846066833
1659027036588345300,11.007345458984375,9.801521301269531,0.3171047866344452,0.0007782367756590247
1659027036598015200,11.01701513671875,9.80152416229248,0.31704819202423096,0.0006180642521940172
1659027036607685000,11.02668505859375,9.801526069641113,0.31697341799736023,0.0005972927901893854
1659027036617354800,11.036354736328125,9.801528930664062,0.31689146161079407,0.0003754986100830138
1659027036627024600,11.046024658203125,9.801531791687012,0.31677570939064026,0.00025267762248404324
1659027036636694300,11.0556943359375,9.801534652709961,0.3166978359222412,0.0003769472532439977
1659027036646364200,11.0653642578125,9.801536560058594,0.31665894389152527,0.0005161570152267814
1659027036656033800,11.07503369140625,9.801538467407227,0.3165951371192932,0.0005591381923295557
1659027036665703700,11.08470361328125,9.801534652709961,0.3167024552822113,0.0004892543074674904
1659027036675373300,11.094373291015625,9.801531791687012,0.316789448261261,0.0007339557632803917
1659027036685043200,11.104043212890625,9.801541328430176,0.3164947032928467,0.0008206389611586928
1659027036694712800,11.113712890625,9.801535606384277,0.31668898463249207,0.0010645950678735971
1659027036704382700,11.1233828125,9.801538467407227,0.3166038393974304,0.001145790796726942
1659027036714052400,11.13305224609375,9.801536560058594,0.3166492283344269,0.001140054315328598
1659027036723722200,11.14272216796875,9.80153751373291,0.3166245222091675,0.0013796440325677395
1659027036733392000,11.152391845703125,9.80154037475586,0.3165317475795746,0.0014156331308186054
1659027036743061800,11.162061767578125,9.801536560058594,0.31666046380996704,0.0013617975637316704
1659027036752731400,11.1717314453125,9.801532745361328,0.31675487756729126,0.0012500932207331061
1659027036762401300,11.1814013671875,9.801534652709961,0.3167107105255127,0.0014460092643275857
1659027036772071000,11.19107080078125,9.80152416229248,0.3170439898967743,0.0014086741721257567
1659027036781740800,11.20074072265625,9.801514625549316,0.317310631275177,0.0014251533430069685
1659027036791410400,11.210410400390625,9.801506996154785,0.3175584077835083,0.0012417626567184925
1659027036801080300,11.220080322265625,9.801508903503418,0.3175314664840698,0.0011928272433578968
1659027036810750000,11.22975,9.80150032043457,0.31774502992630005,0.0013297033729031682
1659027036820419800,11.239419921875,9.801495552062988,0.31792113184928894,0.0011954291258007288
1659027036830089700,11.24908984375,9.801498413085938,0.3178478181362152,0.0008259769529104233
1659027036839759400,11.25875927734375,9.801502227783203,0.31772735714912415,0.0007030551787465811
1659027036849429000,11.268428955078125,9.80151081085205,0.3174409866333008,0.0005308553227223456
1659027036859099000,11.278098876953125,9.801515579223633,0.3172965347766876,0.00044894134043715894
1659027036868768800,11.287768798828125,9.801519393920898,0.3171975910663605,0.00017660949379205704
1659027036878438400,11.2974384765625,9.80151653289795,0.3172729015350342,-0.000006611796834476991
1659027036888108000,11.30710791015625,9.801513671875,0.3173576295375824,0.000020345636585261673
1659027036897778000,11.31677783203125,9.801515579223633,0.3173009157180786,-0.00008246609650086612
1659027036907447800,11.32644775390625,9.801429748535156,0.319917231798172,-0.002889881609007716
1659027036917117400,11.336117431640625,9.801409721374512,0.32054126262664795,-0.0033575710840523243
1659027036926787300,11.345787353515625,9.801430702209473,0.3198748230934143,-0.00299257249571383
1659027036936457000,11.35545703125,9.801445960998535,0.3194161057472229,-0.002493363106623292
1659027036946126800,11.365126953125,9.801462173461914,0.31892603635787964,-0.002064391737803817
1659027036955796500,11.37479638671875,9.801482200622559,0.3183349370956421,-0.0013019960606470704
1659027036965466400,11.38446630859375,9.80148696899414,0.3181900680065155,-0.000573089171666652
1659027036975136000,11.394135986328125,9.801471710205078,0.3186233937740326,-0.000027130461603519507
