time,seconds_elapsed,z,y,x
1659027025671203000,0.090203125,0.003970621153712273,-0.00946840364485979,0.031154103577136993
1659027025680872700,0.099872802734375,0.003665188793092966,-0.00946840364485979,0.033597562462091446
1659027025690542300,0.109542236328125,0.003665188793092966,-0.009162971749901772,0.033597562462091446
1659027025700212200,0.119212158203125,0.003970621153712273,-0.009773836471140385,0.033597562462091446
1659027025709881900,0.1288818359375,0.003359756199643016,-0.00946840364485979,0.034208428114652634
1659027025719551500,0.138551513671875,0.0030543238390237093,-0.010079269297420979,0.03390299528837204
1659027025729221400,0.148221435546875,0.0030543238390237093,-0.00946840364485979,0.033597562462091446
1659027025738891000,0.15789111328125,0.0030543238390237093,-0.00946840364485979,0.03329212963581085
1659027025748560600,0.167560546875,0.0030543238390237093,-0.009162971749901772,0.03390299528837204
1659027025758230500,0.17723046875,0.0030543238390237093,-0.008857538923621178,0.03298669680953026
1659027025767900200,0.186900146484375,0.003359756199643016,-0.009773836471140385,0.03329212963581085
1659027025777570000,0.196570068359375,0.003359756199643016,-0.009773836471140385,0.03176496922969818
1659027025787239700,0.20623974609375,0.003665188793092966,-0.009773836471140385,0.03176496922969818
1659027025796909300,0.215909423828125,0.0030543238390237093,-0.009773836471140385,0.029932374134659767
1659027025806579200,0.2255791015625,0.0030543238390237093,-0.010079269297420979,0.0308486707508564
1659027025816248800,0.235248779296875,0.003359756199643016,-0.010079269297420979,0.03023780696094036
1659027025825918500,0.24491845703125,0.004581485874950886,-0.010079269297420979,0.03145953640341759
1659027025835588400,0.25458837890625,0.003665188793092966,-0.010384701192378998,0.03145953640341759
1659027025845258000,0.264258056640625,0.003665188793092966,-0.009773836471140385,0.032681263983249664
1659027025854927600,0.273927734375,0.003359756199643016,-0.008857538923621178,0.03298669680953026
1659027025864597500,0.283597412109375,0.0027488914784044027,-0.00946840364485979,0.03329212963581085
1659027025874267100,0.29326708984375,0.0027488914784044027,-0.009162971749901772,0.03298669680953026
1659027025883937000,0.30293701171875,0.003665188793092966,-0.008857538923621178,0.032681263983249664
1659027025893606700,0.312606689453125,0.003665188793092966,-0.009773836471140385,0.03451386094093323
1659027025903276300,0.3222763671875,0.003665188793092966,-0.008246674202382565,0.03451386094093323
1659027025912946200,0.3319462890625,0.003665188793092966,-0.008246674202382565,0.03390299528837204
1659027025922615800,0.34161572265625,0.003665188793092966,-0.00946840364485979,0.033597562462091446
1659027025932285400,0.351285400390625,0.003970621153712273,-0.009162971749901772,0.03451386094093323
1659027025941955300,0.360955322265625,0.003970621153712273,-0.00946840364485979,0.03481929376721382
1659027025951625000,0.370625,0.0030543238390237093,-0.007941242307424545,0.03481929376721382
1659027025961294600,0.380294677734375,0.003359756199643016,-0.006414080038666725,0.036651886999607086
1659027025970964500,0.389964599609375,0.0030543238390237093,-0.006414080038666725,0.038789913058280945
1659027025980634000,0.399634033203125,0.0027488914784044027,-0.009162971749901772,0.03909534588456154
1659027025990303700,0.4093037109375,0.002443459117785096,-0.009773836471140385,0.036651886999607086
1659027025999973600,0.4189736328125,0.002443459117785096,-0.010995565913617611,0.031154103577136993
1659027026009643300,0.428643310546875,0.0021380267571657896,-0.010995565913617611,0.028405211865901947
1659027026019313000,0.43831298828125,0.003359756199643016,-0.010079269297420979,0.030543239787220955
1659027026028982800,0.447982666015625,0.003970621153712273,-0.010384701192378998,0.03329212963581085
1659027026038652400,0.45765234375,0.004276053514331579,-0.010384701192378998,0.03145953640341759
1659027026048322000,0.467322021484375,0.004276053514331579,-0.007941242307424545,0.03023780696094036
1659027026057992000,0.476991943359375,0.003665188793092966,-0.009162971749901772,0.03023780696094036
1659027026067661600,0.48666162109375,0.0030543238390237093,-0.010995565913617611,0.031154103577136993
1659027026077331200,0.496331298828125,0.0030543238390237093,-0.010079269297420979,0.032070402055978775
1659027026087001000,0.5060009765625,0.0021380267571657896,-0.00946840364485979,0.0308486707508564
1659027026096670700,0.515670654296875,0.002443459117785096,-0.009773836471140385,0.02932151034474373
1659027026106340400,0.52534033203125,0.002443459117785096,-0.009773836471140385,0.03237583488225937
1659027026116010200,0.53501025390625,0.001832594396546483,-0.010079269297420979,0.032681263983249664
1659027026125679900,0.544679931640625,0.0030543238390237093,-0.010690134018659592,0.03237583488225937
1659027026135349500,0.554349609375,0.003665188793092966,-0.009773836471140385,0.032681263983249664
1659027026145019400,0.564019287109375,0.0030543238390237093,-0.007941242307424545,0.03176496922969818
1659027026154689000,0.57368896484375,0.0030543238390237093,-0.00946840364485979,0.03237583488225937
1659027026164358700,0.583358642578125,0.003970621153712273,-0.010384701192378998,0.03329212963581085
1659027026174028500,0.593028564453125,0.003665188793092966,-0.009773836471140385,0.031154103577136993
1659027026183698200,0.6026982421875,0.0030543238390237093,-0.00946840364485979,0.0308486707508564
1659027026193368000,0.6123681640625,0.0030543238390237093,-0.009162971749901772,0.03145953640341759
1659027026203037700,0.62203759765625,0.002443459117785096,-0.008552107028663158,0.03237583488225937
1659027026212707300,0.631707275390625,0.003359756199643016,-0.00946840364485979,0.03543015569448471
1659027026222377200,0.641377197265625,0.002443459117785096,-0.008857538923621178,0.035735588520765305
1659027026232046800,0.651046875,0.0027488914784044027,-0.008552107028663158,0.0360410213470459
1659027026241716500,0.660716552734375,0.0030543238390237093,-0.007941242307424545,0.03787361457943916
1659027026251386400,0.670386474609375,0.003359756199643016,-0.008857538923621178,0.03481929376721382
1659027026261056000,0.680055908203125,0.003359756199643016,-0.009773836471140385,0.034208428114652634
1659027026270726000,0.689725830078125,0.004276053514331579,-0.009773836471140385,0.032681263983249664
1659027026280395500,0.6993955078125,0.004581485874950886,-0.009773836471140385,0.03298669680953026
1659027026290065200,0.709065185546875,0.003970621153712273,-0.009773836471140385,0.032070402055978775
1659027026299735000,0.718735107421875,0.004276053514331579,-0.009773836471140385,0.0308486707508564
1659027026309404700,0.72840478515625,0.003665188793092966,-0.010384701192378998,0.0308486707508564
1659027026319074300,0.73807421875,0.0030543238390237093,-0.00946840364485979,0.030543239787220955
1659027026328744200,0.747744140625,0.0030543238390237093,-0.00946840364485979,0.03176496922969818
1659027026338413800,0.757413818359375,0.0027488914784044027,-0.008857538923621178,0.030543239787220955
1659027026348083500,0.76708349609375,0.0030543238390237093,-0.00946840364485979,0.03145953640341759
1659027026357753300,0.77675341796875,0.003359756199643016,-0.009773836471140385,0.030543239787220955
1659027026367423000,0.786423095703125,0.003970621153712273,-0.00946840364485979,0.03237583488225937
1659027026377092900,0.7960927734375,0.003359756199643016,-0.009773836471140385,0.033597562462091446
1659027026386762500,0.805762451171875,0.003359756199643016,-0.010079269297420979,0.033597562462091446
1659027026396432100,0.81543212890625,0.003665188793092966,-0.009773836471140385,0.033597562462091446
1659027026406102000,0.82510205078125,0.0030543238390237093,-0.010079269297420979,0.032681263983249664
1659027026415771600,0.834771728515625,0.003970621153712273,-0.00946840364485979,0.033597562462091446
1659027026425441300,0.844441162109375,0.003359756199643016,-0.009162971749901772,0.03298669680953026
1659027026435111200,0.854111083984375,0.003359756199643016,-0.00946840364485979,0.03298669680953026
1659027026444780800,0.86378076171875,0.0030543238390237093,-0.009773836471140385,0.03176496922969818
1659027026454450400,0.873450439453125,0.003359756199643016,-0.009162971749901772,0.033597562462091446
1659027026464120000,0.8831201171875,0.002443459117785096,-0.00946840364485979,0.032070402055978775
1659027026473790000,0.8927900390625,0.0030543238390237093,-0.009162971749901772,0.03237583488225937
1659027026483459600,0.90245947265625,0.0027488914784044027,-0.009162971749901772,0.032681263983249664
1659027026493129200,0.912129150390625,0.003359756199643016,-0.009162971749901772,0.033597562462091446
1659027026502799000,0.921799072265625,0.0030543238390237093,-0.010079269297420979,0.03298669680953026
1659027026512468700,0.93146875,0.003970621153712273,-0.010079269297420979,0.033597562462091446
1659027026522138400,0.941138427734375,0.003359756199643016,-0.009773836471140385,0.033597562462091446
1659027026531808300,0.950808349609375,0.0030543238390237093,-0.010384701192378998,0.033597562462091446
1659027026541478000,0.960477783203125,0.003359756199643016,-0.009773836471140385,0.03481929376721382
1659027026551147500,0.9701474609375,0.003359756199643016,-0.009773836471140385,0.034208428114652634
1659027026560817400,0.9798173828125,0.0027488914784044027,-0.009162971749901772,0.034208428114652634
1659027026570487000,0.989487060546875,0.003359756199643016,-0.008857538923621178,0.03329212963581085
1659027026580157000,0.999156982421875,0.0027488914784044027,-0.00946840364485979,0.033597562462091446
1659027026589826600,1.00882666015625,0.0030543238390237093,-0.00946840364485979,0.03451386094093323
1659027026599496200,1.01849609375,0.0021380267571657896,-0.009773836471140385,0.032681263983249664
1659027026609166000,1.028166015625,0.0030543238390237093,-0.009162971749901772,0.03329212963581085
1659027026618835700,1.037835693359375,0.003359756199643016,-0.008857538923621178,0.03298669680953026
1659027026628505300,1.04750537109375,0.003665188793092966,-0.009162971749901772,0.03329212963581085
1659027026638175200,1.05717529296875,0.004276053514331579,-0.010079269297420979,0.033597562462091446
1659027026647844900,1.066844970703125,0.003665188793092966,-0.00946840364485979,0.03298669680953026
1659027026657514500,1.076514404296875,0.003970621153712273,-0.010384701192378998,0.03298669680953026
1659027026667184400,1.086184326171875,0.003665188793092966,-0.009773836471140385,0.032681263983249664
1659027026676854000,1.09585400390625,0.003359756199643016,-0.00946840364485979,0.03298669680953026
1659027026686524000,1.10552392578125,0.002443459117785096,-0.00946840364485979,0.03390299528837204
1659027026696193500,1.115193603515625,0.003665188793092966,-0.010079269297420979,0.03237583488225937
1659027026705863200,1.12486328125,0.003359756199643016,-0.00946840364485979,0.03176496922969818
1659027026715533000,1.134532958984375,0.0027488914784044027,-0.009162971749901772,0.03176496922969818
1659027026725202700,1.14420263671875,0.0030543238390237093,-0.009162971749901772,0.03145953640341759
1659027026734872300,1.153872314453125,0.0027488914784044027,-0.009162971749901772,0.032681263983249664
1659027026744542200,1.163542236328125,0.004276053514331579,-0.008857538923621178,0.032681263983249664
1659027026754211800,1.1732119140625,0.003665188793092966,-0.00946840364485979,0.03237583488225937
1659027026763881500,1.182881591796875,0.003970621153712273,-0.00946840364485979,0.032070402055978775
1659027026773551400,1.19255126953125,0.0030543238390237093,-0.009773836471140385,0.03237583488225937
1659027026783221000,1.202220947265625,0.003359756199643016,-0.009162971749901772,0.03298669680953026
1659027026792891000,1.211890869140625,0.003665188793092966,-0.010079269297420979,0.03176496922969818
1659027026802560500,1.221560546875,0.003359756199643016,-0.009773836471140385,0.03390299528837204
1659027026812230100,1.231230224609375,0.003665188793092966,-0.009162971749901772,0.034208428114652634
1659027026821900000,1.240900146484375,0.003359756199643016,-0.009773836471140385,0.03451386094093323
1659027026831569700,1.250569580078125,0.0030543238390237093,-0.009162971749901772,0.03481929376721382
1659027026841239300,1.2602392578125,0.002443459117785096,-0.00946840364485979,0.034208428114652634
1659027026850909200,1.2699091796875,0.0030543238390237093,-0.009162971749901772,0.03451386094093323
1659027026860578800,1.279578857421875,0.0030543238390237093,-0.008552107028663158,0.03329212963581085
1659027026870248400,1.28924853515625,0.003665188793092966,-0.009162971749901772,0.033597562462091446
1659027026879918300,1.29891845703125,0.004276053514331579,-0.00946840364485979,0.03298669680953026
1659027026889588000,1.308587890625,0.003665188793092966,-0.009162971749901772,0.032681263983249664
1659027026899257600,1.318257568359375,0.003665188793092966,-0.009773836471140385,0.032070402055978775
1659027026908927500,1.327927490234375,0.003665188793092966,-0.009773836471140385,0.031154103577136993
1659027026918597000,1.33759716796875,0.0030543238390237093,-0.009162971749901772,0.031154103577136993
1659027026928266800,1.347266845703125,0.003359756199643016,-0.009162971749901772,0.03145953640341759
1659027026937936400,1.356936279296875,0.003359756199643016,-0.008857538923621178,0.032070402055978775
1659027026947606300,1.366606201171875,0.003665188793092966,-0.008552107028663158,0.03390299528837204
1659027026957276000,1.37627587890625,0.0030543238390237093,-0.009162971749901772,0.03298669680953026
1659027026966945500,1.385945556640625,0.0030543238390237093,-0.00946840364485979,0.03237583488225937
1659027026976615400,1.395615478515625,0.0030543238390237093,-0.00946840364485979,0.032681263983249664
1659027026986285000,1.40528515625,0.003359756199643016,-0.009773836471140385,0.032681263983249664
1659027026995955000,1.414954833984375,0.0030543238390237093,-0.009162971749901772,0.03329212963581085
1659027027005624600,1.42462451171875,0.003665188793092966,-0.008857538923621178,0.03329212963581085
1659027027015294200,1.434294189453125,0.0030543238390237093,-0.008857538923621178,0.03390299528837204
1659027027024964000,1.443964111328125,0.003359756199643016,-0.00946840364485979,0.03390299528837204
1659027027034633700,1.4536337890625,0.003665188793092966,-0.008857538923621178,0.034208428114652634
1659027027044303400,1.463303466796875,0.0030543238390237093,-0.009162971749901772,0.03390299528837204
1659027027053973200,1.47297314453125,0.0027488914784044027,-0.008857538923621178,0.032681263983249664
1659027027063643000,1.482642822265625,0.003359756199643016,-0.009162971749901772,0.032681263983249664
1659027027073312500,1.4923125,0.0027488914784044027,-0.008857538923621178,0.03390299528837204
1659027027082982400,1.501982421875,0.003665188793092966,-0.00946840364485979,0.033597562462091446
1659027027092652000,1.511652099609375,0.003970621153712273,-0.008857538923621178,0.032681263983249664
1659027027102322000,1.521322021484375,0.0030543238390237093,-0.00946840364485979,0.03298669680953026
1659027027111991600,1.530991455078125,0.003665188793092966,-0.008857538923621178,0.03329212963581085
1659027027121661200,1.5406611328125,0.003359756199643016,-0.009162971749901772,0.03237583488225937
1659027027131331000,1.5503310546875,0.0027488914784044027,-0.010079269297420979,0.03329212963581085
1659027027141000700,1.560000732421875,0.003359756199643016,-0.010384701192378998,0.03298669680953026
1659027027150670300,1.56967041015625,0.0030543238390237093,-0.009773836471140385,0.03390299528837204
1659027027160340200,1.57934033203125,0.003359756199643016,-0.009162971749901772,0.03298669680953026
1659027027170009900,1.589009765625,0.002443459117785096,-0.008857538923621178,0.03329212963581085
1659027027179679700,1.5986796875,0.0030543238390237093,-0.007941242307424545,0.030543239787220955
1659027027189349400,1.608349365234375,0.003359756199643016,-0.009162971749901772,0.03176496922969818
1659027027199019000,1.61801904296875,0.0030543238390237093,-0.009773836471140385,0.032681263983249664
1659027027208689000,1.62768896484375,0.0021380267571657896,-0.009162971749901772,0.0308486707508564
1659027027218358500,1.637358642578125,0.003359756199643016,-0.00946840364485979,0.03237583488225937
1659027027228028200,1.647028076171875,0.003665188793092966,-0.010690134018659592,0.03145953640341759
1659027027237698000,1.656697998046875,0.003970621153712273,-0.010384701192378998,0.03390299528837204
1659027027247367700,1.66636767578125,0.0030543238390237093,-0.008857538923621178,0.03390299528837204
1659027027257037300,1.676037353515625,0.003665188793092966,-0.008552107028663158,0.03390299528837204
1659027027266707200,1.685707275390625,0.003665188793092966,-0.010079269297420979,0.03329212963581085
1659027027276376800,1.695376953125,0.0030543238390237093,-0.00946840364485979,0.033597562462091446
1659027027286046700,1.705046630859375,0.0030543238390237093,-0.008552107028663158,0.03543015569448471
1659027027295716400,1.71471630859375,0.0027488914784044027,-0.008552107028663158,0.03329212963581085
1659027027305386000,1.724385986328125,0.0027488914784044027,-0.008246674202382565,0.03298669680953026
1659027027315055900,1.734055908203125,0.003359756199643016,-0.008857538923621178,0.032070402055978775
1659027027324725500,1.7437255859375,0.0030543238390237093,-0.010079269297420979,0.032070402055978775
1659027027334395100,1.75339501953125,0.003359756199643016,-0.009773836471140385,0.032681263983249664
1659027027344065000,1.76306494140625,0.002443459117785096,-0.00946840364485979,0.0308486707508564
1659027027353734700,1.772734619140625,0.003970621153712273,-0.008857538923621178,0.03145953640341759
1659027027363404300,1.782404296875,0.003665188793092966,-0.00946840364485979,0.03237583488225937
1659027027373074200,1.79207421875,0.003665188793092966,-0.010384701192378998,0.032070402055978775
1659027027382743800,1.801743896484375,0.003665188793092966,-0.010079269297420979,0.03329212963581085
1659027027392413700,1.81141357421875,0.003665188793092966,-0.00946840364485979,0.032681263983249664
1659027027402083300,1.821083251953125,0.0027488914784044027,-0.009162971749901772,0.034208428114652634
1659027027411753000,1.8307529296875,0.0030543238390237093,-0.008857538923621178,0.032681263983249664
1659027027421422800,1.8404228515625,0.0027488914784044027,-0.008246674202382565,0.032070402055978775
1659027027431092500,1.850092529296875,0.002443459117785096,-0.008552107028663158,0.03237583488225937
1659027027440762000,1.85976220703125,0.0027488914784044027,-0.00946840364485979,0.032681263983249664
1659027027450432000,1.869431884765625,0.0027488914784044027,-0.00946840364485979,0.032681263983249664
1659027027460101600,1.8791015625,0.0030543238390237093,-0.008857538923621178,0.03298669680953026
1659027027469771300,1.888771240234375,0.003665188793092966,-0.008246674202382565,0.03237583488225937
1659027027479441200,1.898441162109375,0.003359756199643016,-0.009162971749901772,0.032070402055978775
1659027027489110800,1.90811083984375,0.003970621153712273,-0.00946840364485979,0.032070402055978775
1659027027498780700,1.91778076171875,0.003970621153712273,-0.010079269297420979,0.03237583488225937
1659027027508450300,1.9274501953125,0.0030543238390237093,-0.010079269297420979,0.03176496922969818
1659027027518120000,1.937119873046875,0.003359756199643016,-0.00946840364485979,0.03176496922969818
1659027027527789800,1.946789794921875,0.0030543238390237093,-0.008857538923621178,0.033597562462091446
1659027027537459500,1.95645947265625,0.0030543238390237093,-0.008552107028663158,0.03451386094093323
1659027027547129000,1.966129150390625,0.0030543238390237093,-0.007635809946805239,0.034208428114652634
1659027027556799000,1.975799072265625,0.0021380267571657896,-0.008857538923621178,0.032681263983249664
1659027027566468600,1.985468505859375,0.003359756199643016,-0.008857538923621178,0.03329212963581085
1659027027576138200,1.99513818359375,0.002443459117785096,-0.008552107028663158,0.033597562462091446
1659027027585808100,2.00480810546875,0.0030543238390237093,-0.009162971749901772,0.03298669680953026
1659027027595477800,2.014477783203125,0.003665188793092966,-0.009162971749901772,0.032681263983249664
1659027027605147600,2.024147705078125,0.003359756199643016,-0.009162971749901772,0.0308486707508564
1659027027614817300,2.0338173828125,0.0030543238390237093,-0.010079269297420979,0.03145953640341759
1659027027624487000,2.04348681640625,0.003359756199643016,-0.00946840364485979,0.03176496922969818
1659027027634156800,2.05315673828125,0.003665188793092966,-0.00946840364485979,0.03176496922969818
1659027027643826400,2.062826416015625,0.003359756199643016,-0.010384701192378998,0.031154103577136993
1659027027653496000,2.07249609375,0.003665188793092966,-0.009162971749901772,0.03145953640341759
1659027027663166000,2.082166015625,0.003359756199643016,-0.00946840364485979,0.032681263983249664
1659027027672835600,2.091835693359375,0.0027488914784044027,-0.009773836471140385,0.03237583488225937
1659027027682505500,2.10150537109375,0.0027488914784044027,-0.008857538923621178,0.03237583488225937
1659027027692175000,2.111175048828125,0.0030543238390237093,-0.00946840364485979,0.032681263983249664
1659027027701844700,2.1208447265625,0.0027488914784044027,-0.00946840364485979,0.032681263983249664
1659027027711514600,2.1305146484375,0.003359756199643016,-0.010079269297420979,0.033597562462091446
1659027027721184300,2.140184326171875,0.002443459117785096,-0.00946840364485979,0.03329212963581085
1659027027730854000,2.14985400390625,0.003665188793092966,-0.010079269297420979,0.033597562462091446
1659027027740523800,2.159523681640625,0.0030543238390237093,-0.00946840364485979,0.03237583488225937
1659027027750193400,2.169193359375,0.003665188793092966,-0.010079269297420979,0.03176496922969818
1659027027759863000,2.178863037109375,0.003359756199643016,-0.009773836471140385,0.03298669680953026
1659027027769533000,2.188532958984375,0.0030543238390237093,-0.009162971749901772,0.03176496922969818
1659027027779202600,2.19820263671875,0.003359756199643016,-0.00946840364485979,0.03176496922969818
1659027027788872400,2.20787255859375,0.0030543238390237093,-0.009162971749901772,0.032681263983249664
1659027027798542000,2.2175419921875,0.003359756199643016,-0.009162971749901772,0.031154103577136993
1659027027808211700,2.227211669921875,0.0030543238390237093,-0.009162971749901772,0.03329212963581085
1659027027817881600,2.236881591796875,0.0030543238390237093,-0.009773836471140385,0.03390299528837204
1659027027827551200,2.24655126953125,0.003359756199643016,-0.009773836471140385,0.033597562462091446
1659027027837220900,2.256220947265625,0.0027488914784044027,-0.008857538923621178,0.03329212963581085
1659027027846890800,2.265890869140625,0.003359756199643016,-0.009162971749901772,0.032681263983249664
1659027027856560400,2.275560302734375,0.003359756199643016,-0.009162971749901772,0.03298669680953026
1659027027866230000,2.28522998046875,0.003359756199643016,-0.009773836471140385,0.033597562462091446
1659027027875900000,2.29489990234375,0.0027488914784044027,-0.00946840364485979,0.033597562462091446
1659027027885569500,2.304569580078125,0.003665188793092966,-0.009773836471140385,0.033597562462091446
1659027027895239400,2.314239501953125,0.003359756199643016,-0.00946840364485979,0.03329212963581085
1659027027904909000,2.323908935546875,0.0030543238390237093,-0.009162971749901772,0.03298669680953026
1659027027914578700,2.33357861328125,0.003359756199643016,-0.009162971749901772,0.032681263983249664
1659027027924248600,2.34324853515625,0.0027488914784044027,-0.010079269297420979,0.03298669680953026
1659027027933918200,2.352918212890625,0.003359756199643016,-0.009773836471140385,0.032070402055978775
1659027027943587800,2.362587890625,0.002443459117785096,-0.00946840364485979,0.032070402055978775
1659027027953257700,2.3722578125,0.0030543238390237093,-0.009773836471140385,0.03176496922969818
1659027027962927400,2.38192724609375,0.003359756199643016,-0.010384701192378998,0.03145953640341759
1659027027972597000,2.391596923828125,0.003665188793092966,-0.009773836471140385,0.032070402055978775
1659027027982267000,2.401266845703125,0.0030543238390237093,-0.00946840364485979,0.0308486707508564
1659027027991936500,2.4109365234375,0.003665188793092966,-0.010079269297420979,0.03237583488225937
1659027028001606400,2.4206064453125,0.003665188793092966,-0.00946840364485979,0.03237583488225937
1659027028011276000,2.430276123046875,0.003665188793092966,-0.00946840364485979,0.03329212963581085
1659027028020945700,2.439945556640625,0.0027488914784044027,-0.009162971749901772,0.03329212963581085
1659027028030615600,2.449615478515625,0.0027488914784044027,-0.008552107028663158,0.03329212963581085
1659027028040285200,2.45928515625,0.003359756199643016,-0.008857538923621178,0.03329212963581085
1659027028049954800,2.468954833984375,0.003665188793092966,-0.008857538923621178,0.03329212963581085
1659027028059624700,2.478624755859375,0.0027488914784044027,-0.00946840364485979,0.032070402055978775
1659027028069294300,2.48829443359375,0.0027488914784044027,-0.009162971749901772,0.03451386094093323
1659027028078964200,2.497964111328125,0.0030543238390237093,-0.00946840364485979,0.032070402055978775
1659027028088633900,2.5076337890625,0.0030543238390237093,-0.010079269297420979,0.032681263983249664
1659027028098303500,2.517303466796875,0.003359756199643016,-0.009773836471140385,0.032070402055978775
1659027028107973400,2.526973388671875,0.004276053514331579,-0.009162971749901772,0.03176496922969818
1659027028117643000,2.53664306640625,0.003359756199643016,-0.010079269297420979,0.03237583488225937
1659027028127312600,2.546312744140625,0.003665188793092966,-0.010079269297420979,0.03390299528837204
1659027028136982500,2.555982421875,0.003359756199643016,-0.008552107028663158,0.034208428114652634
1659027028146652200,2.565652099609375,0.003359756199643016,-0.008552107028663158,0.034208428114652634
1659027028156322000,2.575322021484375,0.003359756199643016,-0.008857538923621178,0.034208428114652634
1659027028165991700,2.58499169921875,0.002443459117785096,-0.008552107028663158,0.03329212963581085
1659027028175661300,2.594661376953125,0.0030543238390237093,-0.00946840364485979,0.032681263983249664
1659027028185331200,2.604331298828125,0.0030543238390237093,-0.009773836471140385,0.034208428114652634
1659027028195000800,2.614000732421875,0.0030543238390237093,-0.00946840364485979,0.03329212963581085
1659027028204670700,2.623670654296875,0.004276053514331579,-0.008857538923621178,0.03237583488225937
1659027028214340400,2.63334033203125,0.003970621153712273,-0.009162971749901772,0.03298669680953026
1659027028224010200,2.64301025390625,0.003665188793092966,-0.009162971749901772,0.032681263983249664
1659027028233680000,2.652679931640625,0.003359756199643016,-0.010384701192378998,0.032070402055978775
1659027028243349500,2.662349609375,0.0030543238390237093,-0.009773836471140385,0.03329212963581085
1659027028253019400,2.672019287109375,0.003359756199643016,-0.008857538923621178,0.03237583488225937
1659027028262689000,2.68168896484375,0.003359756199643016,-0.008552107028663158,0.03481929376721382
1659027028272359000,2.69135888671875,0.0030543238390237093,-0.008246674202382565,0.035124726593494415
1659027028282028500,2.701028564453125,0.0027488914784044027,-0.008552107028663158,0.03481929376721382
1659027028291698200,2.7106982421875,0.003359756199643016,-0.008246674202382565,0.03481929376721382
1659027028301368000,2.7203681640625,0.0030543238390237093,-0.008246674202382565,0.03390299528837204
1659027028311037700,2.73003759765625,0.003359756199643016,-0.009773836471140385,0.03390299528837204
1659027028320707300,2.739707275390625,0.003665188793092966,-0.010384701192378998,0.032681263983249664
1659027028330377200,2.749377197265625,0.0030543238390237093,-0.00946840364485979,0.03237583488225937
1659027028340046800,2.759046875,0.003359756199643016,-0.00946840364485979,0.033597562462091446
1659027028349716500,2.768716552734375,0.003970621153712273,-0.009162971749901772,0.03176496922969818
1659027028359386400,2.778386474609375,0.003970621153712273,-0.010079269297420979,0.03298669680953026
1659027028369056000,2.788055908203125,0.003665188793092966,-0.010384701192378998,0.032681263983249664
1659027028378726000,2.797725830078125,0.003359756199643016,-0.009773836471140385,0.032681263983249664
1659027028388395500,2.8073955078125,0.004276053514331579,-0.008857538923621178,0.03237583488225937
1659027028398065200,2.817065185546875,0.003359756199643016,-0.008857538923621178,0.03390299528837204
1659027028407735000,2.826735107421875,0.0030543238390237093,-0.008857538923621178,0.03329212963581085
1659027028417404700,2.83640478515625,0.0030543238390237093,-0.009162971749901772,0.03298669680953026
1659027028427074300,2.84607421875,0.0030543238390237093,-0.009773836471140385,0.033597562462091446
1659027028436744200,2.855744140625,0.0027488914784044027,-0.008552107028663158,0.03390299528837204
1659027028446413800,2.865413818359375,0.003665188793092966,-0.008857538923621178,0.033597562462091446
1659027028456083700,2.875083740234375,0.0030543238390237093,-0.010384701192378998,0.03298669680953026
1659027028465753300,2.88475341796875,0.003665188793092966,-0.010384701192378998,0.032681263983249664
1659027028475423000,2.894423095703125,0.0030543238390237093,-0.009773836471140385,0.03237583488225937
1659027028485092900,2.9040927734375,0.0030543238390237093,-0.00946840364485979,0.03176496922969818
1659027028494762500,2.913762451171875,0.003665188793092966,-0.009773836471140385,0.03145953640341759
1659027028504432400,2.923432373046875,0.003359756199643016,-0.00946840364485979,0.03176496922969818
1659027028514102000,2.93310205078125,0.003665188793092966,-0.010079269297420979,0.033597562462091446
1659027028523772000,2.94277197265625,0.0030543238390237093,-0.010384701192378998,0.032681263983249664
1659027028533441500,2.952441650390625,0.003359756199643016,-0.009773836471140385,0.03390299528837204
1659027028543111200,2.962111083984375,0.003359756199643016,-0.009773836471140385,0.034208428114652634
1659027028552781000,2.971781005859375,0.002443459117785096,-0.00946840364485979,0.03329212963581085
1659027028562450700,2.98145068359375,0.003359756199643016,-0.00946840364485979,0.032681263983249664
1659027028572120600,2.99112060546875,0.003359756199643016,-0.00946840364485979,0.032070402055978775
1659027028581790200,3.000790283203125,0.0030543238390237093,-0.010384701192378998,0.03145953640341759
1659027028591459800,3.0104599609375,0.003665188793092966,-0.010690134018659592,0.03176496922969818
1659027028601129700,3.020129638671875,0.003665188793092966,-0.010384701192378998,0.031154103577136993
1659027028610799400,3.02979931640625,0.003665188793092966,-0.009773836471140385,0.031154103577136993
1659027028620469000,3.039468994140625,0.0030543238390237093,-0.010079269297420979,0.03176496922969818
1659027028630139000,3.049138916015625,0.003970621153712273,-0.009162971749901772,0.031154103577136993
1659027028639808500,3.05880859375,0.003359756199643016,-0.009773836471140385,0.03176496922969818
1659027028649478400,3.068478515625,0.003359756199643016,-0.010079269297420979,0.03023780696094036
1659027028659148000,3.07814794921875,0.004276053514331579,-0.00946840364485979,0.032681263983249664
1659027028668817700,3.087817626953125,0.003665188793092966,-0.009162971749901772,0.033597562462091446
1659027028678487600,3.097487548828125,0.003665188793092966,-0.00946840364485979,0.03298669680953026
1659027028688157200,3.1071572265625,0.003970621153712273,-0.009162971749901772,0.03451386094093323
1659027028697827000,3.1168271484375,0.003359756199643016,-0.010079269297420979,0.034208428114652634
1659027028707496700,3.12649658203125,0.003970621153712273,-0.010384701192378998,0.033597562462091446
1659027028717166600,3.13616650390625,0.003970621153712273,-0.008857538923621178,0.03390299528837204
1659027028726836200,3.145836181640625,0.003665188793092966,-0.008552107028663158,0.034208428114652634
1659027028736505900,3.155505859375,0.003665188793092966,-0.008857538923621178,0.03298669680953026
1659027028746175700,3.16517578125,0.003970621153712273,-0.009773836471140385,0.03298669680953026
1659027028755845400,3.174845458984375,0.004581485874950886,-0.009162971749901772,0.032681263983249664
1659027028765515300,3.184515380859375,0.003665188793092966,-0.009773836471140385,0.032070402055978775
1659027028775185000,3.194184814453125,0.0030543238390237093,-0.009162971749901772,0.03237583488225937
1659027028784854500,3.2038544921875,0.002443459117785096,-0.009162971749901772,0.03298669680953026
1659027028794524400,3.2135244140625,0.002443459117785096,-0.009773836471140385,0.033597562462091446
1659027028804194000,3.223194091796875,0.0027488914784044027,-0.009773836471140385,0.032681263983249664
1659027028813863700,3.23286376953125,0.003665188793092966,-0.008857538923621178,0.031154103577136993
1659027028823533600,3.242533447265625,0.003359756199643016,-0.009773836471140385,0.032070402055978775
1659027028833203200,3.252203125,0.0030543238390237093,-0.009773836471140385,0.032681263983249664
1659027028842873000,3.261873046875,0.003665188793092966,-0.00946840364485979,0.032681263983249664
1659027028852542700,3.271542724609375,0.003665188793092966,-0.009162971749901772,0.032070402055978775
1659027028862212600,3.281212646484375,0.0030543238390237093,-0.009773836471140385,0.032070402055978775
1659027028871882200,3.29088232421875,0.003665188793092966,-0.00946840364485979,0.033597562462091446
1659027028881552000,3.3005517578125,0.0027488914784044027,-0.00946840364485979,0.032070402055978775
1659027028891221800,3.3102216796875,0.0030543238390237093,-0.010079269297420979,0.0308486707508564
1659027028900891400,3.319891357421875,0.003359756199643016,-0.00946840364485979,0.0308486707508564
1659027028910561300,3.329561279296875,0.0027488914784044027,-0.010079269297420979,0.03145953640341759
1659027028920231000,3.33923095703125,0.003359756199643016,-0.010384701192378998,0.03176496922969818
1659027028929900500,3.348900634765625,0.003359756199643016,-0.008857538923621178,0.032681263983249664
1659027028939570400,3.3585703125,0.0030543238390237093,-0.009162971749901772,0.03298669680953026
1659027028949240000,3.368239990234375,0.003665188793092966,-0.009162971749901772,0.034208428114652634
1659027028958910000,3.377909912109375,0.003665188793092966,-0.009773836471140385,0.03329212963581085
1659027028968579600,3.38757958984375,0.003359756199643016,-0.009162971749901772,0.034208428114652634
1659027028978249200,3.397249267578125,0.0027488914784044027,-0.008857538923621178,0.033597562462091446
1659027028987919000,3.406919189453125,0.003665188793092966,-0.009162971749901772,0.03451386094093323
1659027028997588700,3.416588623046875,0.003359756199643016,-0.010079269297420979,0.03451386094093323
1659027029007258600,3.426258544921875,0.003359756199643016,-0.00946840364485979,0.033597562462091446
1659027029016928300,3.43592822265625,0.003665188793092966,-0.009162971749901772,0.033597562462091446
1659027029026598100,3.44559814453125,0.003359756199643016,-0.00946840364485979,0.03390299528837204
1659027029036267800,3.455267822265625,0.0027488914784044027,-0.009162971749901772,0.033597562462091446
1659027029045937400,3.4649375,0.003359756199643016,-0.009162971749901772,0.03390299528837204
1659027029055607300,3.474607177734375,0.003665188793092966,-0.010079269297420979,0.032681263983249664
1659027029065277000,3.48427685546875,0.004276053514331579,-0.010384701192378998,0.03145953640341759
1659027029074946800,3.49394677734375,0.004276053514331579,-0.010079269297420979,0.031154103577136993
1659027029084616400,3.503616455078125,0.003665188793092966,-0.00946840364485979,0.03176496922969818
1659027029094286000,3.5132861328125,0.004276053514331579,-0.010079269297420979,0.03176496922969818
1659027029103956000,3.5229560546875,0.003970621153712273,-0.008857538923621178,0.032070402055978775
1659027029113625600,3.53262548828125,0.003970621153712273,-0.009162971749901772,0.03237583488225937
1659027029123295200,3.542295166015625,0.0030543238390237093,-0.009162971749901772,0.03329212963581085
1659027029132965000,3.551965087890625,0.002443459117785096,-0.008857538923621178,0.033597562462091446
1659027029142634800,3.561634765625,0.0030543238390237093,-0.008857538923621178,0.034208428114652634
1659027029152304600,3.5713046875,0.0030543238390237093,-0.00946840364485979,0.033597562462091446
1659027029161974300,3.580974365234375,0.0030543238390237093,-0.008857538923621178,0.032681263983249664
1659027029171644200,3.59064404296875,0.003970621153712273,-0.00946840364485979,0.032070402055978775
1659027029181313800,3.600313720703125,0.003665188793092966,-0.009773836471140385,0.032070402055978775
1659027029190983700,3.609983642578125,0.003359756199643016,-0.010079269297420979,0.03298669680953026
1659027029200653300,3.6196533203125,0.0030543238390237093,-0.009773836471140385,0.032070402055978775
1659027029210323000,3.629322998046875,0.0030543238390237093,-0.008552107028663158,0.033597562462091446
1659027029219992800,3.638992919921875,0.0027488914784044027,-0.00946840364485979,0.032681263983249664
1659027029229662500,3.648662353515625,0.003359756199643016,-0.00946840364485979,0.03329212963581085
1659027029239332000,3.65833203125,0.003665188793092966,-0.008552107028663158,0.03329212963581085
1659027029249002000,3.668001953125,0.003359756199643016,-0.008857538923621178,0.032070402055978775
1659027029258671600,3.677671630859375,0.0027488914784044027,-0.008552107028663158,0.033597562462091446
1659027029268341500,3.687341552734375,0.0030543238390237093,-0.00946840364485979,0.032681263983249664
1659027029278011100,3.69701123046875,0.003359756199643016,-0.010079269297420979,0.03237583488225937
1659027029287681000,3.706680908203125,0.003359756199643016,-0.008857538923621178,0.03298669680953026
1659027029297350700,3.7163505859375,0.003665188793092966,-0.00946840364485979,0.03329212963581085
1659027029307020300,3.726020263671875,0.003665188793092966,-0.009162971749901772,0.03390299528837204
1659027029316690200,3.735690185546875,0.003359756199643016,-0.009162971749901772,0.03329212963581085
1659027029326359800,3.74535986328125,0.0030543238390237093,-0.009773836471140385,0.03145953640341759
1659027029336029700,3.75502978515625,0.0030543238390237093,-0.010079269297420979,0.03237583488225937
1659027029345699300,3.76469921875,0.0030543238390237093,-0.010384701192378998,0.032070402055978775
1659027029355369200,3.774369140625,0.003359756199643016,-0.010384701192378998,0.03176496922969818
1659027029365038800,3.784038818359375,0.003665188793092966,-0.009773836471140385,0.031154103577136993
1659027029374708500,3.79370849609375,0.003665188793092966,-0.009773836471140385,0.033597562462091446
1659027029384378400,3.80337841796875,0.003970621153712273,-0.009773836471140385,0.03329212963581085
1659027029394048000,3.813048095703125,0.003665188793092966,-0.009162971749901772,0.033597562462091446
1659027029403718000,3.8227177734375,0.0021380267571657896,-0.009162971749901772,0.03390299528837204
1659027029413387500,3.832387451171875,0.0030543238390237093,-0.009773836471140385,0.03329212963581085
1659027029423057200,3.84205712890625,0.0030543238390237093,-0.009773836471140385,0.032681263983249664
1659027029432727000,3.85172705078125,0.003359756199643016,-0.00946840364485979,0.03176496922969818
1659027029442397000,3.86139697265625,0.0027488914784044027,-0.009773836471140385,0.032070402055978775
1659027029452066600,3.871066650390625,0.0027488914784044027,-0.009162971749901772,0.032681263983249664
1659027029461736200,3.880736083984375,0.0030543238390237093,-0.009773836471140385,0.03176496922969818
1659027029471406000,3.890406005859375,0.003359756199643016,-0.009162971749901772,0.032070402055978775
1659027029481075700,3.90007568359375,0.003359756199643016,-0.00946840364485979,0.03145953640341759
1659027029490745300,3.909745361328125,0.003665188793092966,-0.00946840364485979,0.03176496922969818
1659027029500415200,3.919415283203125,0.003970621153712273,-0.009162971749901772,0.032070402055978775
1659027029510084900,3.9290849609375,0.003970621153712273,-0.009773836471140385,0.03329212963581085
1659027029519754800,3.938754638671875,0.003970621153712273,-0.00946840364485979,0.033597562462091446
1659027029529424400,3.94842431640625,0.003665188793092966,-0.008857538923621178,0.032681263983249664
1659027029539094300,3.95809423828125,0.003665188793092966,-0.009773836471140385,0.032070402055978775
1659027029548764000,3.967763916015625,0.003359756199643016,-0.010079269297420979,0.033597562462091446
1659027029558433800,3.977433837890625,0.003665188793092966,-0.009773836471140385,0.032681263983249664
1659027029568103400,3.987103515625,0.003359756199643016,-0.009162971749901772,0.03390299528837204
1659027029577773000,3.99677294921875,0.0027488914784044027,-0.008857538923621178,0.03390299528837204
1659027029587443000,4.00644287109375,0.0030543238390237093,-0.009162971749901772,0.034208428114652634
1659027029597112600,4.016112548828125,0.003665188793092966,-0.009773836471140385,0.03481929376721382
1659027029606782200,4.0257822265625,0.003665188793092966,-0.009162971749901772,0.03329212963581085
1659027029616452000,4.0354521484375,0.003359756199643016,-0.009773836471140385,0.03176496922969818
1659027029626121700,4.045121826171875,0.003359756199643016,-0.010079269297420979,0.031154103577136993
1659027029635791600,4.05479150390625,0.0027488914784044027,-0.009773836471140385,0.030543239787220955
1659027029645461200,4.064461181640625,0.003970621153712273,-0.009773836471140385,0.0308486707508564
1659027029655131100,4.074131103515625,0.0030543238390237093,-0.009773836471140385,0.03145953640341759
1659027029664800800,4.08380078125,0.003665188793092966,-0.00946840364485979,0.032681263983249664
1659027029674470700,4.093470703125,0.003665188793092966,-0.00946840364485979,0.03329212963581085
1659027029684140300,4.103140380859375,0.003665188793092966,-0.00946840364485979,0.033597562462091446
1659027029693810000,4.112809814453125,0.0030543238390237093,-0.009162971749901772,0.034208428114652634
1659027029703479800,4.122479736328125,0.003665188793092966,-0.008857538923621178,0.03390299528837204
1659027029713149400,4.1321494140625,0.0030543238390237093,-0.00946840364485979,0.03390299528837204
1659027029722819000,4.141819091796875,0.0027488914784044027,-0.008857538923621178,0.03329212963581085
1659027029732489000,4.151489013671875,0.003359756199643016,-0.009162971749901772,0.03298669680953026
1659027029742158600,4.16115869140625,0.003665188793092966,-0.009162971749901772,0.03329212963581085
1659027029751828500,4.170828369140625,0.003665188793092966,-0.008857538923621178,0.03329212963581085
1659027029761498000,4.180498046875,0.003665188793092966,-0.008552107028663158,0.03451386094093323
1659027029771168000,4.19016796875,0.003665188793092966,-0.008552107028663158,0.033597562462091446
1659027029780837600,4.199837646484375,0.0021380267571657896,-0.009162971749901772,0.033597562462091446
1659027029790507500,4.209507568359375,0.003359756199643016,-0.009162971749901772,0.03237583488225937
1659027029800177200,4.21917724609375,0.003359756199643016,-0.009162971749901772,0.03329212963581085
1659027029809846800,4.2288466796875,0.0030543238390237093,-0.008857538923621178,0.03298669680953026
1659027029819516700,4.2385166015625,0.0030543238390237093,-0.008857538923621178,0.03390299528837204
1659027029829186300,4.248186279296875,0.0030543238390237093,-0.008857538923621178,0.03329212963581085
1659027029838856200,4.257856201171875,0.002443459117785096,-0.008857538923621178,0.03451386094093323
1659027029848525800,4.26752587890625,0.003665188793092966,-0.009773836471140385,0.03390299528837204
1659027029858195700,4.27719580078125,0.003665188793092966,-0.008857538923621178,0.034208428114652634
1659027029867865300,4.286865234375,0.003970621153712273,-0.00946840364485979,0.03481929376721382
1659027029877535200,4.29653515625,0.003970621153712273,-0.008552107028663158,0.03451386094093323
1659027029887204900,4.306204833984375,0.003665188793092966,-0.00946840364485979,0.032681263983249664
1659027029896874500,4.31587451171875,0.003665188793092966,-0.009162971749901772,0.03329212963581085
1659027029906544400,4.32554443359375,0.0030543238390237093,-0.009162971749901772,0.03298669680953026
1659027029916214000,4.335214111328125,0.0030543238390237093,-0.009773836471140385,0.032070402055978775
1659027029925884000,4.3448837890625,0.0030543238390237093,-0.009162971749901772,0.032681263983249664
1659027029935553500,4.354553466796875,0.003359756199643016,-0.00946840364485979,0.031154103577136993
1659027029945223400,4.364223388671875,0.003359756199643016,-0.00946840364485979,0.032070402055978775
1659027029954893000,4.37389306640625,0.003970621153712273,-0.00946840364485979,0.03145953640341759
1659027029964563000,4.38356298828125,0.003359756199643016,-0.009773836471140385,0.03237583488225937
1659027029974232600,4.393232666015625,0.003359756199643016,-0.00946840364485979,0.03298669680953026
1659027029983902200,4.402902099609375,0.003665188793092966,-0.009162971749901772,0.03451386094093323
1659027029993572000,4.412572021484375,0.003665188793092966,-0.009162971749901772,0.034208428114652634
1659027030003241700,4.42224169921875,0.0030543238390237093,-0.009773836471140385,0.033597562462091446
1659027030012911600,4.43191162109375,0.002443459117785096,-0.008552107028663158,0.033597562462091446
1659027030022581200,4.441581298828125,0.003359756199643016,-0.008857538923621178,0.03390299528837204
1659027030032251000,4.4512509765625,0.0030543238390237093,-0.00946840364485979,0.03329212963581085
1659027030041920800,4.460920654296875,0.003970621153712273,-0.00946840364485979,0.03329212963581085
1659027030051590400,4.47059033203125,0.003359756199643016,-0.00946840364485979,0.03329212963581085
1659027030061260300,4.48026025390625,0.003359756199643016,-0.009162971749901772,0.03329212963581085
1659027030070930000,4.489929931640625,0.0030543238390237093,-0.008552107028663158,0.032681263983249664
1659027030080599800,4.499599853515625,0.003665188793092966,-0.00946840364485979,0.032681263983249664
1659027030090269400,4.50926953125,0.003359756199643016,-0.010690134018659592,0.032070402055978775
1659027030099939300,4.518939208984375,0.0030543238390237093,-0.010079269297420979,0.031154103577136993
1659027030109609000,4.52860888671875,0.003359756199643016,-0.00946840364485979,0.03176496922969818
1659027030119278600,4.538278564453125,0.003970621153712273,-0.00946840364485979,0.031154103577136993
1659027030128948500,4.547948486328125,0.003359756199643016,-0.009773836471140385,0.03145953640341759
1659027030138618000,4.5576181640625,0.003665188793092966,-0.010079269297420979,0.032070402055978775
1659027030148288000,4.5672880859375,0.003359756199643016,-0.00946840364485979,0.03390299528837204
1659027030157957600,4.57695751953125,0.0027488914784044027,-0.009162971749901772,0.032681263983249664
1659027030167627500,4.58662744140625,0.0027488914784044027,-0.010079269297420979,0.032681263983249664
1659027030177297200,4.596297119140625,0.003665188793092966,-0.009773836471140385,0.03237583488225937
1659027030186966800,4.605966796875,0.0027488914784044027,-0.009773836471140385,0.03390299528837204
1659027030196636700,4.61563671875,0.003359756199643016,-0.00946840364485979,0.03298669680953026
1659027030206306300,4.625306396484375,0.003359756199643016,-0.009162971749901772,0.03298669680953026
1659027030215976200,4.63497607421875,0.003359756199643016,-0.00946840364485979,0.033597562462091446
1659027030225645800,4.644645751953125,0.003359756199643016,-0.00946840364485979,0.032681263983249664
1659027030235315700,4.654315673828125,0.003665188793092966,-0.010079269297420979,0.03176496922969818
1659027030244985300,4.6639853515625,0.003665188793092966,-0.00946840364485979,0.03329212963581085
1659027030254655200,4.6736552734375,0.0030543238390237093,-0.009773836471140385,0.032681263983249664
1659027030264324900,4.683324951171875,0.003359756199643016,-0.010079269297420979,0.03176496922969818
1659027030273994500,4.692994384765625,0.003970621153712273,-0.00946840364485979,0.032681263983249664
1659027030283664400,4.702664306640625,0.0030543238390237093,-0.00946840364485979,0.032681263983249664
1659027030293334000,4.712333984375,0.0027488914784044027,-0.009773836471140385,0.032070402055978775
1659027030303004000,4.72200390625,0.003359756199643016,-0.010079269297420979,0.03176496922969818
1659027030312673500,4.731673583984375,0.0027488914784044027,-0.009162971749901772,0.032070402055978775
1659027030322343400,4.741343505859375,0.003359756199643016,-0.010384701192378998,0.032681263983249664
1659027030332013000,4.751012939453125,0.0027488914784044027,-0.010384701192378998,0.03176496922969818
1659027030341683000,4.760682861328125,0.003665188793092966,-0.009773836471140385,0.03176496922969818
1659027030351352600,4.7703525390625,0.003665188793092966,-0.010384701192378998,0.032070402055978775
1659027030361022200,4.780022216796875,0.003359756199643016,-0.010384701192378998,0.0308486707508564
1659027030370692000,4.789692138671875,0.003970621153712273,-0.010079269297420979,0.03023780696094036
1659027030380361700,4.79936181640625,0.003970621153712273,-0.010079269297420979,0.02932151034474373
1659027030390031600,4.809031494140625,0.0030543238390237093,-0.010079269297420979,0.02871064469218254
1659027030399701200,4.818701171875,0.003359756199643016,-0.010384701192378998,0.029016077518463135
1659027030409371100,4.82837109375,0.003359756199643016,-0.010690134018659592,0.029932374134659767
1659027030419040800,4.838040771484375,0.003359756199643016,-0.009162971749901772,0.03145953640341759
1659027030428710700,4.847710693359375,0.003359756199643016,-0.010384701192378998,0.03237583488225937
1659027030438380300,4.85738037109375,0.003359756199643016,-0.009773836471140385,0.032070402055978775
1659027030448050000,4.8670498046875,0.0030543238390237093,-0.010384701192378998,0.032681263983249664
1659027030457719800,4.8767197265625,0.003359756199643016,-0.009773836471140385,0.032681263983249664
1659027030467389400,4.886389404296875,0.0030543238390237093,-0.00946840364485979,0.032681263983249664
1659027030477059300,4.896059326171875,0.003665188793092966,-0.010079269297420979,0.032070402055978775
1659027030486729000,4.90572900390625,0.003359756199643016,-0.010079269297420979,0.032681263983249664
1659027030496398800,4.91539892578125,0.003665188793092966,-0.010079269297420979,0.032070402055978775
1659027030506068500,4.925068359375,0.0027488914784044027,-0.009773836471140385,0.032070402055978775
1659027030515738400,4.93473828125,0.003359756199643016,-0.00946840364485979,0.0308486707508564
1659027030525408000,4.944407958984375,0.0030543238390237093,-0.00946840364485979,0.03176496922969818
1659027030535077600,4.95407763671875,0.003359756199643016,-0.00946840364485979,0.032070402055978775
1659027030544747500,4.96374755859375,0.0027488914784044027,-0.00946840364485979,0.03176496922969818
1659027030554417200,4.973417236328125,0.003665188793092966,-0.010079269297420979,0.03176496922969818
1659027030564087000,4.983087158203125,0.003359756199643016,-0.010079269297420979,0.03145953640341759
1659027030573756700,4.992756591796875,0.003665188793092966,-0.009773836471140385,0.03237583488225937
1659027030583426600,5.002426513671875,0.003970621153712273,-0.009773836471140385,0.03390299528837204
1659027030593096200,5.01209619140625,0.003665188793092966,-0.010079269297420979,0.032070402055978775
1659027030602766000,5.02176611328125,0.003665188793092966,-0.00946840364485979,0.03237583488225937
1659027030612435700,5.031435791015625,0.0030543238390237093,-0.009773836471140385,0.03237583488225937
1659027030622105300,5.041105224609375,0.003970621153712273,-0.009162971749901772,0.03390299528837204
1659027030631775200,5.050775146484375,0.0027488914784044027,-0.00946840364485979,0.032070402055978775
1659027030641444900,5.06044482421875,0.003665188793092966,-0.009773836471140385,0.03237583488225937
1659027030651114800,5.07011474609375,0.003359756199643016,-0.00946840364485979,0.03237583488225937
1659027030660784600,5.07978466796875,0.003665188793092966,-0.00946840364485979,0.033597562462091446
1659027030670454300,5.089454345703125,0.003665188793092966,-0.010079269297420979,0.03298669680953026
1659027030680124000,5.0991240234375,0.0030543238390237093,-0.009773836471140385,0.03237583488225937
1659027030689793800,5.108793701171875,0.0030543238390237093,-0.00946840364485979,0.03298669680953026
1659027030699463400,5.11846337890625,0.0027488914784044027,-0.009773836471140385,0.03390299528837204
1659027030709133000,5.128133056640625,0.003665188793092966,-0.00946840364485979,0.03390299528837204
1659027030718803000,5.137802978515625,0.003359756199643016,-0.008552107028663158,0.03390299528837204
1659027030728472800,5.147472900390625,0.0030543238390237093,-0.008552107028663158,0.03390299528837204
1659027030738142500,5.157142578125,0.003665188793092966,-0.009773836471140385,0.03329212963581085
1659027030747812000,5.16681201171875,0.0027488914784044027,-0.009162971749901772,0.033597562462091446
1659027030757482000,5.17648193359375,0.0030543238390237093,-0.00946840364485979,0.03390299528837204
1659027030767151600,5.186151611328125,0.003665188793092966,-0.00946840364485979,0.03237583488225937
1659027030776821500,5.195821533203125,0.003359756199643016,-0.00946840364485979,0.03298669680953026
1659027030786491100,5.2054912109375,0.003359756199643016,-0.00946840364485979,0.03176496922969818
1659027030796161000,5.2151611328125,0.003359756199643016,-0.009162971749901772,0.03237583488225937
1659027030805830700,5.22483056640625,0.003359756199643016,-0.00946840364485979,0.03298669680953026
1659027030815500500,5.23450048828125,0.0030543238390237093,-0.00946840364485979,0.03298669680953026
1659027030825170200,5.244170166015625,0.003665188793092966,-0.00946840364485979,0.03329212963581085
1659027030834839800,5.25383984375,0.003359756199643016,-0.00946840364485979,0.03390299528837204
1659027030844509700,5.263509765625,0.003359756199643016,-0.008857538923621178,0.03298669680953026
1659027030854179300,5.273179443359375,0.0030543238390237093,-0.010079269297420979,0.03390299528837204
1659027030863849200,5.28284912109375,0.0030543238390237093,-0.009773836471140385,0.03298669680953026
1659027030873518800,5.292518798828125,0.003359756199643016,-0.009162971749901772,0.03237583488225937
1659027030883188700,5.302188720703125,0.003359756199643016,-0.009162971749901772,0.03298669680953026
1659027030892858400,5.3118583984375,0.003665188793092966,-0.008246674202382565,0.032070402055978775
1659027030902528300,5.3215283203125,0.003359756199643016,-0.008857538923621178,0.03390299528837204
1659027030912198000,5.331197998046875,0.003970621153712273,-0.009773836471140385,0.034208428114652634
1659027030921867500,5.340867431640625,0.003665188793092966,-0.009162971749901772,0.032681263983249664
1659027030931537400,5.350537353515625,0.003359756199643016,-0.009162971749901772,0.03176496922969818
1659027030941207000,5.36020703125,0.002443459117785096,-0.008552107028663158,0.03176496922969818
1659027030950877000,5.369876953125,0.0027488914784044027,-0.00946840364485979,0.032681263983249664
1659027030960546800,5.379546875,0.003359756199643016,-0.010079269297420979,0.03145953640341759
1659027030970216400,5.389216552734375,0.003359756199643016,-0.010384701192378998,0.03237583488225937
1659027030979886000,5.398885986328125,0.003359756199643016,-0.009162971749901772,0.032070402055978775
1659027030989556000,5.408555908203125,0.0027488914784044027,-0.009773836471140385,0.03176496922969818
1659027030999225600,5.4182255859375,0.003359756199643016,-0.009773836471140385,0.032070402055978775
1659027031008895200,5.427895263671875,0.0027488914784044027,-0.009773836471140385,0.032681263983249664
1659027031018565000,5.437565185546875,0.0030543238390237093,-0.00946840364485979,0.03237583488225937
1659027031028235000,5.447235107421875,0.003359756199643016,-0.009162971749901772,0.03298669680953026
1659027031037904600,5.456904541015625,0.0030543238390237093,-0.009162971749901772,0.03329212963581085
1659027031047574500,5.466574462890625,0.0030543238390237093,-0.00946840364485979,0.032070402055978775
1659027031057244200,5.476244140625,0.003970621153712273,-0.009773836471140385,0.032681263983249664
1659027031066913800,5.485913818359375,0.003359756199643016,-0.010079269297420979,0.03176496922969818
1659027031076583700,5.495583740234375,0.003665188793092966,-0.010384701192378998,0.03145953640341759
1659027031086253300,5.50525341796875,0.003665188793092966,-0.010079269297420979,0.03237583488225937
1659027031095923200,5.514923095703125,0.002443459117785096,-0.010995565913617611,0.03145953640341759
1659027031105592800,5.5245927734375,0.003359756199643016,-0.010690134018659592,0.0308486707508564
1659027031115262700,5.5342626953125,0.003359756199643016,-0.010995565913617611,0.03023780696094036
1659027031124932400,5.543932373046875,0.003359756199643016,-0.010384701192378998,0.029626941308379173
1659027031134602200,5.553602294921875,0.003970621153712273,-0.010995565913617611,0.030543239787220955
1659027031144272000,5.56327197265625,0.0030543238390237093,-0.010995565913617611,0.030543239787220955
1659027031153941500,5.57294140625,0.0030543238390237093,-0.010079269297420979,0.03145953640341759
1659027031163611400,5.582611328125,0.0030543238390237093,-0.00946840364485979,0.03145953640341759
1659027031173281000,5.592281005859375,0.003359756199643016,-0.009162971749901772,0.03176496922969818
1659027031182951000,5.601950927734375,0.0030543238390237093,-0.010079269297420979,0.032681263983249664
1659027031192620500,5.61162060546875,0.003359756199643016,-0.00946840364485979,0.03237583488225937
1659027031202290400,5.62129052734375,0.002443459117785096,-0.00946840364485979,0.032681263983249664
1659027031211960000,5.6309599609375,0.0027488914784044027,-0.00946840364485979,0.03176496922969818
1659027031221630000,5.6406298828125,0.003359756199643016,-0.009773836471140385,0.032070402055978775
1659027031231299600,5.650299560546875,0.003359756199643016,-0.008552107028663158,0.03237583488225937
1659027031240969500,5.659969482421875,0.003665188793092966,-0.009773836471140385,0.032070402055978775
1659027031250639000,5.66963916015625,0.003970621153712273,-0.009773836471140385,0.03329212963581085
1659027031260309000,5.67930908203125,0.003359756199643016,-0.010079269297420979,0.03237583488225937
1659027031269978600,5.688978515625,0.004276053514331579,-0.00946840364485979,0.03237583488225937
1659027031279648300,5.698648193359375,0.003970621153712273,-0.00946840364485979,0.03176496922969818
1659027031289318100,5.708318115234375,0.003665188793092966,-0.008857538923621178,0.03176496922969818
1659027031298987800,5.71798779296875,0.003665188793092966,-0.009162971749901772,0.032681263983249664
1659027031308657700,5.72765771484375,0.004276053514331579,-0.00946840364485979,0.033597562462091446
1659027031318327600,5.73732763671875,0.003970621153712273,-0.009162971749901772,0.034208428114652634
1659027031327997200,5.7469970703125,0.003359756199643016,-0.007941242307424545,0.035124726593494415
1659027031337666800,5.756666748046875,0.003665188793092966,-0.008246674202382565,0.035124726593494415
1659027031347336700,5.766336669921875,0.0030543238390237093,-0.007941242307424545,0.03787361457943916
1659027031357006300,5.77600634765625,0.0030543238390237093,-0.007024944759905338,0.03909534588456154
1659027031366676000,5.785676025390625,0.0027488914784044027,-0.007635809946805239,0.03756818547844887
1659027031376345900,5.795345947265625,0.003359756199643016,-0.00946840364485979,0.03634645417332649
1659027031386015700,5.805015625,0.0030543238390237093,-0.010384701192378998,0.032070402055978775
1659027031395685400,5.814685302734375,0.003665188793092966,-0.010995565913617611,0.029626941308379173
1659027031405355300,5.824355224609375,0.004276053514331579,-0.010995565913617611,0.028099779039621353
1659027031415025000,5.83402490234375,0.003665188793092966,-0.010079269297420979,0.0308486707508564
1659027031424694500,5.843694580078125,0.004886918235570192,-0.009773836471140385,0.03237583488225937
1659027031434364400,5.853364501953125,0.003970621153712273,-0.010690134018659592,0.032070402055978775
1659027031444034000,5.863033935546875,0.003359756199643016,-0.010384701192378998,0.031154103577136993
1659027031453704000,5.872703857421875,0.0030543238390237093,-0.009162971749901772,0.029016077518463135
1659027031463373600,5.88237353515625,0.003665188793092966,-0.010690134018659592,0.0308486707508564
1659027031473043500,5.89204345703125,0.0027488914784044027,-0.010995565913617611,0.03451386094093323
1659027031482713000,5.901713134765625,0.0030543238390237093,-0.008857538923621178,0.03390299528837204
1659027031492382700,5.9113828125,0.003359756199643016,-0.007941242307424545,0.03543015569448471
1659027031502052600,5.921052490234375,0.0030543238390237093,-0.009162971749901772,0.03481929376721382
1659027031511722500,5.930722412109375,0.0027488914784044027,-0.009773836471140385,0.035735588520765305
1659027031521392000,5.94039208984375,0.003665188793092966,-0.00946840364485979,0.03451386094093323
1659027031531062000,5.95006201171875,0.003359756199643016,-0.008246674202382565,0.032681263983249664
1659027031540731600,5.959731689453125,0.003665188793092966,-0.00946840364485979,0.0308486707508564
1659027031550401300,5.9694013671875,0.003665188793092966,-0.009773836471140385,0.031154103577136993
1659027031560071200,5.9790712890625,0.0030543238390237093,-0.010384701192378998,0.029016077518463135
1659027031569740800,5.98874072265625,0.003665188793092966,-0.010384701192378998,0.029016077518463135
1659027031579410700,5.99841064453125,0.0030543238390237093,-0.009162971749901772,0.028405211865901947
1659027031589080300,6.008080322265625,0.0027488914784044027,-0.009162971749901772,0.0308486707508564
1659027031598750200,6.017750244140625,0.0027488914784044027,-0.008552107028663158,0.03390299528837204
1659027031608419800,6.027419921875,0.0027488914784044027,-0.008552107028663158,0.03543015569448471
1659027031618089700,6.03708984375,0.003665188793092966,-0.008857538923621178,0.035735588520765305
1659027031627759400,6.04675927734375,0.0030543238390237093,-0.008246674202382565,0.03543015569448471
1659027031637429000,6.056428955078125,0.003359756199643016,-0.009162971749901772,0.03543015569448471
1659027031647099000,6.066098876953125,0.003665188793092966,-0.009773836471140385,0.03543015569448471
1659027031656768800,6.075768798828125,0.004276053514331579,-0.009162971749901772,0.034208428114652634
1659027031666438400,6.0854384765625,0.003665188793092966,-0.009773836471140385,0.03390299528837204
1659027031676108000,6.09510791015625,0.003970621153712273,-0.00946840364485979,0.03329212963581085
1659027031685778000,6.10477783203125,0.0027488914784044027,-0.008857538923621178,0.03176496922969818
1659027031695447600,6.114447509765625,0.003970621153712273,-0.008857538923621178,0.031154103577136993
1659027031705117400,6.124117431640625,0.003359756199643016,-0.009773836471140385,0.030543239787220955
1659027031714787000,6.133787109375,0.003970621153712273,-0.009773836471140385,0.030543239787220955
1659027031724457000,6.14345703125,0.003665188793092966,-0.010384701192378998,0.0308486707508564
1659027031734126600,6.153126708984375,0.0030543238390237093,-0.010690134018659592,0.031154103577136993
1659027031743796500,6.16279638671875,0.003359756199643016,-0.010384701192378998,0.03237583488225937
1659027031753466000,6.172466064453125,0.0027488914784044027,-0.009773836471140385,0.033597562462091446
1659027031763135700,6.1821357421875,0.003359756199643016,-0.008857538923621178,0.034208428114652634
1659027031772805600,6.1918056640625,0.003665188793092966,-0.00946840364485979,0.034208428114652634
1659027031782475500,6.2014755859375,0.0030543238390237093,-0.009162971749901772,0.03481929376721382
1659027031792145200,6.211145263671875,0.003359756199643016,-0.009773836471140385,0.03451386094093323
1659027031801815000,6.22081494140625,0.003359756199643016,-0.010384701192378998,0.03329212963581085
1659027031811484700,6.230484619140625,0.003665188793092966,-0.010384701192378998,0.03023780696094036
1659027031821154300,6.240154296875,0.003359756199643016,-0.008857538923621178,0.0308486707508564
1659027031830824200,6.24982421875,0.003359756199643016,-0.008552107028663158,0.031154103577136993
1659027031840493800,6.259493896484375,0.0030543238390237093,-0.00946840364485979,0.032070402055978775
1659027031850163700,6.269163818359375,0.003359756199643016,-0.00946840364485979,0.03237583488225937
1659027031859833300,6.278833251953125,0.002443459117785096,-0.009162971749901772,0.032070402055978775
1659027031869503200,6.288503173828125,0.0027488914784044027,-0.009773836471140385,0.0308486707508564
1659027031879172900,6.2981728515625,0.003359756199643016,-0.009162971749901772,0.03145953640341759
1659027031888842800,6.3078427734375,0.0030543238390237093,-0.009773836471140385,0.03298669680953026
1659027031898512400,6.317512451171875,0.003970621153712273,-0.010079269297420979,0.03481929376721382
1659027031908182300,6.327182373046875,0.003359756199643016,-0.008552107028663158,0.03543015569448471
1659027031917852000,6.336851806640625,0.003665188793092966,-0.008857538923621178,0.034208428114652634
1659027031927521800,6.346521728515625,0.003359756199643016,-0.009162971749901772,0.03451386094093323
1659027031937191400,6.35619140625,0.003359756199643016,-0.008857538923621178,0.03390299528837204
1659027031946861000,6.365861083984375,0.003359756199643016,-0.008857538923621178,0.03237583488225937
1659027031956531000,6.375531005859375,0.003359756199643016,-0.008857538923621178,0.033597562462091446
1659027031966200600,6.38520068359375,0.003359756199643016,-0.008857538923621178,0.03237583488225937
1659027031975870500,6.394870361328125,0.0030543238390237093,-0.008552107028663158,0.03237583488225937
1659027031985540400,6.404540283203125,0.003359756199643016,-0.010079269297420979,0.03237583488225937
1659027031995210000,6.4142099609375,0.0027488914784044027,-0.008552107028663158,0.03298669680953026
1659027032004879600,6.423879638671875,0.0027488914784044027,-0.008246674202382565,0.03145953640341759
1659027032014549500,6.433549560546875,0.003359756199643016,-0.009162971749901772,0.03329212963581085
1659027032024219100,6.44321923828125,0.003359756199643016,-0.009162971749901772,0.034208428114652634
1659027032033889000,6.452888916015625,0.003970621153712273,-0.009162971749901772,0.033597562462091446
1659027032043559000,6.462558837890625,0.003665188793092966,-0.008857538923621178,0.03543015569448471
1659027032053228500,6.472228515625,0.003359756199643016,-0.008552107028663158,0.035124726593494415
1659027032062898200,6.481898193359375,0.003665188793092966,-0.009162971749901772,0.034208428114652634
1659027032072568000,6.491568115234375,0.003970621153712273,-0.00946840364485979,0.035124726593494415
1659027032082237700,6.50123779296875,0.0030543238390237093,-0.00946840364485979,0.034208428114652634
1659027032091907600,6.510907470703125,0.0027488914784044027,-0.00946840364485979,0.03451386094093323
1659027032101577200,6.5205771484375,0.0027488914784044027,-0.008857538923621178,0.03298669680953026
1659027032111247000,6.5302470703125,0.0027488914784044027,-0.008857538923621178,0.03237583488225937
1659027032120916700,6.539916748046875,0.0027488914784044027,-0.008246674202382565,0.03298669680953026
1659027032130586400,6.54958642578125,0.0027488914784044027,-0.010079269297420979,0.03237583488225937
1659027032140256300,6.55925634765625,0.003359756199643016,-0.009773836471140385,0.032681263983249664
1659027032149926000,6.56892578125,0.0027488914784044027,-0.008857538923621178,0.032681263983249664
1659027032159595800,6.578595703125,0.003665188793092966,-0.009773836471140385,0.03237583488225937
1659027032169265700,6.588265625,0.0030543238390237093,-0.010384701192378998,0.03176496922969818
1659027032178935300,6.597935302734375,0.003359756199643016,-0.010690134018659592,0.03176496922969818
1659027032188605000,6.60760498046875,0.003359756199643016,-0.009773836471140385,0.03145953640341759
1659027032198274800,6.61727490234375,0.004276053514331579,-0.010384701192378998,0.0308486707508564
1659027032207944400,6.6269443359375,0.003359756199643016,-0.010690134018659592,0.032070402055978775
1659027032217614300,6.6366142578125,0.0030543238390237093,-0.010079269297420979,0.032070402055978775
1659027032227284000,6.646283935546875,0.0030543238390237093,-0.00946840364485979,0.03145953640341759
1659027032236953900,6.655953857421875,0.003970621153712273,-0.00946840364485979,0.030543239787220955
1659027032246623500,6.66562353515625,0.0027488914784044027,-0.00946840364485979,0.031154103577136993
1659027032256293400,6.67529345703125,0.0030543238390237093,-0.009773836471140385,0.03176496922969818
1659027032265963000,6.684962890625,0.003665188793092966,-0.00946840364485979,0.032070402055978775
1659027032275633000,6.6946328125,0.003665188793092966,-0.010079269297420979,0.03237583488225937
1659027032285302500,6.704302490234375,0.003970621153712273,-0.00946840364485979,0.032681263983249664
1659027032294972400,6.713972412109375,0.003359756199643016,-0.009162971749901772,0.03329212963581085
1659027032304642000,6.72364208984375,0.003665188793092966,-0.009162971749901772,0.032681263983249664
1659027032314311700,6.733311767578125,0.003359756199643016,-0.008552107028663158,0.03481929376721382
1659027032323981600,6.742981689453125,0.003665188793092966,-0.008857538923621178,0.034208428114652634
1659027032333651200,6.752651123046875,0.002443459117785096,-0.008857538923621178,0.03451386094093323
1659027032343321000,6.762321044921875,0.003359756199643016,-0.008857538923621178,0.03543015569448471
1659027032352991000,6.771990966796875,0.0027488914784044027,-0.008552107028663158,0.035124726593494415
1659027032362660600,6.78166064453125,0.003665188793092966,-0.009162971749901772,0.033597562462091446
1659027032372330200,6.791330322265625,0.003359756199643016,-0.00946840364485979,0.03451386094093323
1659027032382000000,6.801000244140625,0.003970621153712273,-0.010384701192378998,0.03329212963581085
1659027032391669800,6.810669677734375,0.003359756199643016,-0.010079269297420979,0.032070402055978775
1659027032401339600,6.820339599609375,0.003665188793092966,-0.010079269297420979,0.03237583488225937
1659027032411009500,6.830009521484375,0.003665188793092966,-0.00946840364485979,0.032681263983249664
1659027032420679200,6.83967919921875,0.003970621153712273,-0.010384701192378998,0.032070402055978775
1659027032430348800,6.849348876953125,0.003665188793092966,-0.009162971749901772,0.032681263983249664
1659027032440018700,6.859018798828125,0.0030543238390237093,-0.009773836471140385,0.03176496922969818
1659027032449688300,6.868688232421875,0.003359756199643016,-0.010384701192378998,0.032070402055978775
1659027032459358200,6.878358154296875,0.003665188793092966,-0.00946840364485979,0.032681263983249664
1659027032469027800,6.88802783203125,0.0030543238390237093,-0.009162971749901772,0.032681263983249664
1659027032478697700,6.89769775390625,0.002443459117785096,-0.00946840364485979,0.03237583488225937
1659027032488367400,6.907367431640625,0.003665188793092966,-0.009162971749901772,0.03237583488225937
1659027032498037000,6.917037109375,0.003665188793092966,-0.010079269297420979,0.03176496922969818
1659027032507707000,6.926706787109375,0.0027488914784044027,-0.00946840364485979,0.03176496922969818
1659027032517376800,6.936376708984375,0.0027488914784044027,-0.010995565913617611,0.030543239787220955
1659027032527046400,6.94604638671875,0.003359756199643016,-0.010079269297420979,0.03023780696094036
1659027032536716300,6.95571630859375,0.003359756199643016,-0.010079269297420979,0.029626941308379173
1659027032546386000,6.965385986328125,0.003359756199643016,-0.010384701192378998,0.03023780696094036
1659027032556055600,6.9750556640625,0.0030543238390237093,-0.009773836471140385,0.029626941308379173
1659027032565725400,6.984725341796875,0.003359756199643016,-0.010384701192378998,0.0308486707508564
1659027032575395000,6.99439501953125,0.003665188793092966,-0.009162971749901772,0.03176496922969818
1659027032585065000,7.00406494140625,0.003359756199643016,-0.008857538923621178,0.032681263983249664
1659027032594734800,7.01373486328125,0.0027488914784044027,-0.008246674202382565,0.033597562462091446
1659027032604404500,7.023404541015625,0.0027488914784044027,-0.009162971749901772,0.03298669680953026
1659027032614074000,7.03307421875,0.0027488914784044027,-0.00946840364485979,0.03451386094093323
1659027032623744000,7.042743896484375,0.0030543238390237093,-0.009773836471140385,0.03481929376721382
1659027032633413600,7.05241357421875,0.003359756199643016,-0.010079269297420979,0.035735588520765305
1659027032643083500,7.06208349609375,0.003359756199643016,-0.009162971749901772,0.03329212963581085
1659027032652753200,7.071753173828125,0.003665188793092966,-0.010079269297420979,0.032681263983249664
1659027032662423000,7.081423095703125,0.003970621153712273,-0.010384701192378998,0.032681263983249664
1659027032672092700,7.0910927734375,0.003665188793092966,-0.00946840364485979,0.032681263983249664
1659027032681762600,7.100762451171875,0.003665188793092966,-0.00946840364485979,0.03237583488225937
1659027032691432200,7.11043212890625,0.003970621153712273,-0.009162971749901772,0.03176496922969818
1659027032701102000,7.12010205078125,0.003359756199643016,-0.00946840364485979,0.03237583488225937
1659027032710771700,7.129771728515625,0.003359756199643016,-0.009773836471140385,0.032681263983249664
1659027032720441600,7.139441650390625,0.0027488914784044027,-0.00946840364485979,0.032070402055978775
1659027032730111200,7.149111328125,0.003665188793092966,-0.009162971749901772,0.03237583488225937
1659027032739780900,7.15878076171875,0.0027488914784044027,-0.009773836471140385,0.032070402055978775
1659027032749450800,7.16845068359375,0.002443459117785096,-0.009773836471140385,0.03298669680953026
1659027032759120600,7.17812060546875,0.003359756199643016,-0.009773836471140385,0.03237583488225937
1659027032768790300,7.187790283203125,0.003665188793092966,-0.009773836471140385,0.032070402055978775
1659027032778460200,7.197460205078125,0.0030543238390237093,-0.00946840364485979,0.032070402055978775
1659027032788129800,7.2071298828125,0.0030543238390237093,-0.009773836471140385,0.03145953640341759
1659027032797799400,7.21679931640625,0.003665188793092966,-0.010384701192378998,0.032070402055978775
1659027032807469300,7.22646923828125,0.003665188793092966,-0.010079269297420979,0.030543239787220955
1659027032817139200,7.23613916015625,0.0030543238390237093,-0.010079269297420979,0.029932374134659767
1659027032826808800,7.245808837890625,0.003359756199643016,-0.010079269297420979,0.030543239787220955
1659027032836478500,7.255478515625,0.0030543238390237093,-0.010079269297420979,0.030543239787220955
1659027032846148400,7.2651484375,0.0030543238390237093,-0.009162971749901772,0.03176496922969818
1659027032855818000,7.27481787109375,0.002443459117785096,-0.008857538923621178,0.03145953640341759
1659027032865488000,7.28448779296875,0.0030543238390237093,-0.008857538923621178,0.032070402055978775
1659027032875157800,7.29415771484375,0.0030543238390237093,-0.00946840364485979,0.03298669680953026
1659027032884827400,7.303827392578125,0.003665188793092966,-0.009773836471140385,0.03298669680953026
1659027032894497000,7.3134970703125,0.003359756199643016,-0.00946840364485979,0.03237583488225937
1659027032904167000,7.3231669921875,0.0030543238390237093,-0.00946840364485979,0.03298669680953026
1659027032913836500,7.33283642578125,0.003665188793092966,-0.009773836471140385,0.03298669680953026
1659027032923506400,7.34250634765625,0.003665188793092966,-0.009773836471140385,0.032681263983249664
1659027032933176000,7.352176025390625,0.003359756199643016,-0.010690134018659592,0.03329212963581085
1659027032942846000,7.361845947265625,0.003665188793092966,-0.010079269297420979,0.03390299528837204
1659027032952515600,7.371515625,0.003359756199643016,-0.00946840364485979,0.03329212963581085
1659027032962185500,7.381185546875,0.0027488914784044027,-0.00946840364485979,0.03176496922969818
1659027032971855000,7.390855224609375,0.003359756199643016,-0.008857538923621178,0.032070402055978775
1659027032981525000,7.40052490234375,0.003359756199643016,-0.010079269297420979,0.03145953640341759
1659027032991194600,7.410194580078125,0.003359756199643016,-0.010079269297420979,0.029626941308379173
1659027033000864500,7.419864501953125,0.003970621153712273,-0.010384701192378998,0.029626941308379173
1659027033010534100,7.4295341796875,0.003665188793092966,-0.010079269297420979,0.031154103577136993
1659027033020203800,7.439203857421875,0.004276053514331579,-0.010079269297420979,0.03237583488225937
1659027033029873700,7.448873779296875,0.003665188793092966,-0.009773836471140385,0.03176496922969818
1659027033039543600,7.45854345703125,0.003970621153712273,-0.00946840364485979,0.03329212963581085
1659027033049213200,7.468213134765625,0.003665188793092966,-0.008552107028663158,0.034208428114652634
1659027033058883000,7.477883056640625,0.0030543238390237093,-0.008857538923621178,0.03481929376721382
1659027033068552700,7.487552734375,0.003665188793092966,-0.009162971749901772,0.03390299528837204
1659027033078222300,7.497222412109375,0.003359756199643016,-0.00946840364485979,0.03543015569448471
1659027033087892200,7.506892333984375,0.003665188793092966,-0.008552107028663158,0.03543015569448471
1659027033097562000,7.51656201171875,0.0027488914784044027,-0.008246674202382565,0.035124726593494415
1659027033107231700,7.526231689453125,0.0027488914784044027,-0.008552107028663158,0.0360410213470459
1659027033116901400,7.5359013671875,0.0030543238390237093,-0.007941242307424545,0.03695731982588768
1659027033126571300,7.5455712890625,0.003970621153712273,-0.007635809946805239,0.035735588520765305
1659027033136241000,7.555240966796875,0.0027488914784044027,-0.008552107028663158,0.03481929376721382
1659027033145910800,7.564910888671875,0.003359756199643016,-0.009162971749901772,0.035124726593494415
1659027033155580700,7.57458056640625,0.003359756199643016,-0.008857538923621178,0.03390299528837204
1659027033165250300,7.584250244140625,0.003970621153712273,-0.00946840364485979,0.03329212963581085
1659027033174920000,7.593919921875,0.0030543238390237093,-0.009162971749901772,0.032681263983249664
1659027033184589800,7.60358984375,0.0030543238390237093,-0.00946840364485979,0.03298669680953026
1659027033194259500,7.613259521484375,0.003665188793092966,-0.009773836471140385,0.033597562462091446
1659027033203929300,7.622929443359375,0.0030543238390237093,-0.009162971749901772,0.03329212963581085
1659027033213599000,7.632598876953125,0.0027488914784044027,-0.008246674202382565,0.033597562462091446
1659027033223268900,7.642268798828125,0.0027488914784044027,-0.009773836471140385,0.03237583488225937
1659027033232938500,7.6519384765625,0.003359756199643016,-0.010079269297420979,0.032070402055978775
1659027033242608400,7.6616083984375,0.003359756199643016,-0.009773836471140385,0.03237583488225937
1659027033252278000,7.671278076171875,0.003665188793092966,-0.009773836471140385,0.032681263983249664
1659027033261948000,7.680947998046875,0.003970621153712273,-0.013744457624852657,0.028405211865901947
1659027033271617500,7.690617431640625,0.004276053514331579,-0.011606430634856224,0.027488915249705315
1659027033281287400,7.700287353515625,0.003970621153712273,-0.010384701192378998,0.02626718580722809
1659027033290957000,7.70995703125,0.003359756199643016,-0.00946840364485979,0.029932374134659767
1659027033300627000,7.719626953125,0.003970621153712273,-0.009162971749901772,0.034208428114652634
1659027033310296600,7.729296630859375,0.003359756199643016,-0.008857538923621178,0.03390299528837204
1659027033319966500,7.738966552734375,0.0027488914784044027,-0.010079269297420979,0.03298669680953026
1659027033329636000,7.748635986328125,0.0027488914784044027,-0.00946840364485979,0.03145953640341759
1659027033339306000,7.758305908203125,0.003359756199643016,-0.011606430634856224,0.029932374134659767
1659027033348975600,7.7679755859375,0.003665188793092966,-0.012522728182375431,0.03023780696094036
1659027033358645500,7.7776455078125,0.003665188793092966,-0.010690134018659592,0.0308486707508564
1659027033368315100,7.787315185546875,0.003665188793092966,-0.008857538923621178,0.03145953640341759
1659027033377985000,7.796985107421875,0.003970621153712273,-0.007635809946805239,0.034208428114652634
1659027033387654700,7.806654541015625,0.003359756199643016,-0.007941242307424545,0.03787361457943916
1659027033397324300,7.81632421875,0.0030543238390237093,-0.00946840364485979,0.037262752652168274
1659027033406994200,7.825994140625,0.0030543238390237093,-0.008857538923621178,0.03329212963581085
1659027033416664000,7.8356640625,0.003665188793092966,-0.009162971749901772,0.03176496922969818
1659027033426333700,7.845333740234375,0.003359756199643016,-0.010079269297420979,0.0308486707508564
1659027033436003600,7.855003662109375,0.0027488914784044027,-0.010690134018659592,0.03145953640341759
1659027033445673200,7.864673095703125,0.0030543238390237093,-0.010079269297420979,0.033597562462091446
1659027033455342800,7.8743427734375,0.0027488914784044027,-0.009162971749901772,0.03237583488225937
1659027033465012700,7.8840126953125,0.0030543238390237093,-0.008552107028663158,0.03145953640341759
1659027033474682600,7.8936826171875,0.003359756199643016,-0.00946840364485979,0.03298669680953026
1659027033484352300,7.903352294921875,0.003665188793092966,-0.010690134018659592,0.033597562462091446
1659027033494022000,7.91302197265625,0.003665188793092966,-0.010079269297420979,0.031154103577136993
1659027033503691800,7.92269189453125,0.004581485874950886,-0.00946840364485979,0.032070402055978775
1659027033513361400,7.932361328125,0.0030543238390237093,-0.00946840364485979,0.0308486707508564
1659027033523031300,7.94203125,0.0030543238390237093,-0.00946840364485979,0.03298669680953026
1659027033532701200,7.951701171875,0.002443459117785096,-0.009162971749901772,0.03390299528837204
1659027033542370800,7.961370849609375,0.002443459117785096,-0.008552107028663158,0.03237583488225937
1659027033552040400,7.97104052734375,0.0027488914784044027,-0.008246674202382565,0.03543015569448471
1659027033561710300,7.98071044921875,0.0030543238390237093,-0.008552107028663158,0.037262752652168274
1659027033571380000,7.9903798828125,0.003359756199643016,-0.007635809946805239,0.0360410213470459
1659027033581049900,8.0000498046875,0.0030543238390237093,-0.007330377586185932,0.035735588520765305
1659027033590719700,8.0097197265625,0.003359756199643016,-0.007635809946805239,0.03451386094093323
1659027033600389400,8.019389404296875,0.0030543238390237093,-0.007635809946805239,0.03451386094093323
1659027033610059000,8.02905908203125,0.0030543238390237093,-0.008552107028663158,0.03481929376721382
1659027033619729000,8.03872900390625,0.003359756199643016,-0.009162971749901772,0.03451386094093323
1659027033629398800,8.048398681640625,0.003665188793092966,-0.009773836471140385,0.033597562462091446
1659027033639068400,8.058068359375,0.003970621153712273,-0.00946840364485979,0.03390299528837204
1659027033648738000,8.067738037109375,0.004581485874950886,-0.008857538923621178,0.035124726593494415
1659027033658408000,8.077407958984375,0.003665188793092966,-0.007635809946805239,0.0360410213470459
1659027033668077600,8.08707763671875,0.0030543238390237093,-0.007941242307424545,0.035124726593494415
1659027033677747500,8.09674755859375,0.004276053514331579,-0.009162971749901772,0.033597562462091446
1659027033687417300,8.106417236328125,0.003970621153712273,-0.00946840364485979,0.03237583488225937
1659027033697087000,8.1160869140625,0.003665188793092966,-0.010995565913617611,0.02932151034474373
1659027033706756600,8.125756591796875,0.003359756199643016,-0.011300998739898205,0.02779434807598591
1659027033716426500,8.135426513671876,0.003359756199643016,-0.010690134018659592,0.031154103577136993
1659027033726096100,8.14509619140625,0.003665188793092966,-0.010384701192378998,0.029932374134659767
1659027033735766000,8.15476611328125,0.003970621153712273,-0.010384701192378998,0.032070402055978775
1659027033745435600,8.164435546875,0.0027488914784044027,-0.010079269297420979,0.031154103577136993
1659027033755105500,8.17410546875,0.003359756199643016,-0.009162971749901772,0.0308486707508564
1659027033764775200,8.183775146484376,0.003359756199643016,-0.00946840364485979,0.029626941308379173
1659027033774445000,8.193445068359376,0.003665188793092966,-0.00946840364485979,0.03176496922969818
1659027033784114700,8.20311474609375,0.003970621153712273,-0.009162971749901772,0.03329212963581085
1659027033793784600,8.21278466796875,0.003665188793092966,-0.008857538923621178,0.03390299528837204
1659027033803454200,8.2224541015625,0.0030543238390237093,-0.007941242307424545,0.03481929376721382
1659027033813124000,8.2321240234375,0.0030543238390237093,-0.007941242307424545,0.0360410213470459
1659027033822793700,8.241793701171876,0.003359756199643016,-0.008552107028663158,0.035735588520765305
1659027033832463600,8.251463623046876,0.0027488914784044027,-0.009162971749901772,0.037262752652168274
1659027033842133200,8.26113330078125,0.0027488914784044027,-0.008857538923621178,0.036651886999607086
1659027033851803100,8.27080322265625,0.0030543238390237093,-0.007941242307424545,0.035735588520765305
1659027033861472800,8.28047265625,0.0030543238390237093,-0.008246674202382565,0.03634645417332649
1659027033871142700,8.290142578125,0.003359756199643016,-0.00946840364485979,0.03481929376721382
1659027033880812300,8.299812255859376,0.003359756199643016,-0.009773836471140385,0.03390299528837204
1659027033890482200,8.309482177734376,0.003665188793092966,-0.010079269297420979,0.032681263983249664
1659027033900151800,8.31915185546875,0.003665188793092966,-0.008857538923621178,0.032070402055978775
1659027033909821700,8.32882177734375,0.003665188793092966,-0.009162971749901772,0.029932374134659767
1659027033919491300,8.3384912109375,0.004276053514331579,-0.00946840364485979,0.03145953640341759
1659027033929161200,8.3481611328125,0.003665188793092966,-0.010079269297420979,0.03176496922969818
1659027033938830800,8.357830810546876,0.003359756199643016,-0.009162971749901772,0.03329212963581085
1659027033948500700,8.367500732421876,0.0030543238390237093,-0.008857538923621178,0.03390299528837204
1659027033958170400,8.37717041015625,0.003665188793092966,-0.008552107028663158,0.03329212963581085
1659027033967840300,8.38684033203125,0.003665188793092966,-0.009162971749901772,0.034208428114652634
1659027033977510000,8.396510009765626,0.0021380267571657896,-0.010690134018659592,0.03237583488225937
1659027033987179800,8.4061796875,0.0030543238390237093,-0.010384701192378998,0.03237583488225937
1659027033996849400,8.415849365234376,0.003359756199643016,-0.009773836471140385,0.032681263983249664
1659027034006519300,8.425519287109376,0.0030543238390237093,-0.00946840364485979,0.033597562462091446
1659027034016189000,8.43518896484375,0.003665188793092966,-0.00946840364485979,0.032681263983249664
1659027034025858600,8.444858642578126,0.003665188793092966,-0.009773836471140385,0.03329212963581085
1659027034035528400,8.454528564453126,0.003359756199643016,-0.010079269297420979,0.031154103577136993
1659027034045198300,8.4641982421875,0.003970621153712273,-0.010384701192378998,0.030543239787220955
1659027034054868000,8.473867919921876,0.0027488914784044027,-0.010079269297420979,0.030543239787220955
1659027034064537900,8.483537841796876,0.003665188793092966,-0.010384701192378998,0.029932374134659767
1659027034074207500,8.49320751953125,0.003665188793092966,-0.00946840364485979,0.031154103577136993
1659027034083877000,8.502877197265626,0.003359756199643016,-0.00946840364485979,0.03237583488225937
1659027034093547000,8.512547119140624,0.0027488914784044027,-0.00946840364485979,0.03329212963581085
1659027034103217000,8.522216796875,0.0027488914784044027,-0.008552107028663158,0.032681263983249664
1659027034112886500,8.531886474609376,0.0030543238390237093,-0.009773836471140385,0.03145953640341759
1659027034122556200,8.54155615234375,0.003665188793092966,-0.010690134018659592,0.03145953640341759
1659027034132226000,8.55122607421875,0.0030543238390237093,-0.010995565913617611,0.029932374134659767
1659027034141896000,8.56089599609375,0.003359756199643016,-0.010384701192378998,0.02932151034474373
1659027034151565600,8.570565673828124,0.003665188793092966,-0.010384701192378998,0.02932151034474373
1659027034161235500,8.5802353515625,0.003359756199643016,-0.010995565913617611,0.02779434807598591
1659027034170905000,8.589905029296874,0.003970621153712273,-0.011300998739898205,0.026572618633508682
1659027034180574700,8.59957470703125,0.003359756199643016,-0.011300998739898205,0.027488915249705315
1659027034190244600,8.60924462890625,0.003359756199643016,-0.011606430634856224,0.0256563201546669
1659027034199914500,8.61891455078125,0.003665188793092966,-0.010995565913617611,0.026878049597144127
1659027034209584000,8.628584228515624,0.003665188793092966,-0.010995565913617611,0.02779434807598591
1659027034219253800,8.638253662109374,0.003359756199643016,-0.010384701192378998,0.028099779039621353
1659027034228923600,8.647923583984374,0.003359756199643016,-0.010079269297420979,0.030543239787220955
1659027034238593300,8.65759326171875,0.003359756199643016,-0.00946840364485979,0.03237583488225937
1659027034248263200,8.66726318359375,0.003359756199643016,-0.009162971749901772,0.033597562462091446
1659027034257933000,8.67693310546875,0.0030543238390237093,-0.00946840364485979,0.03451386094093323
1659027034267602700,8.686602783203124,0.0030543238390237093,-0.00946840364485979,0.035124726593494415
1659027034277272300,8.696272216796874,0.003359756199643016,-0.009162971749901772,0.034208428114652634
1659027034286942200,8.705942138671874,0.003665188793092966,-0.009162971749901772,0.03237583488225937
1659027034296612000,8.715612060546874,0.0030543238390237093,-0.009773836471140385,0.03329212963581085
1659027034306281700,8.72528173828125,0.0030543238390237093,-0.010384701192378998,0.032681263983249664
1659027034315951600,8.73495166015625,0.003665188793092966,-0.009773836471140385,0.03237583488225937
1659027034325621200,8.744621337890624,0.003970621153712273,-0.010384701192378998,0.030543239787220955
1659027034335291000,8.754290771484374,0.003970621153712273,-0.00946840364485979,0.032070402055978775
1659027034344960800,8.763960693359374,0.003970621153712273,-0.00946840364485979,0.031154103577136993
1659027034354630700,8.773630615234374,0.003970621153712273,-0.00946840364485979,0.032070402055978775
1659027034364300300,8.78330029296875,0.004276053514331579,-0.008857538923621178,0.032070402055978775
1659027034373970000,8.792969970703124,0.003665188793092966,-0.009162971749901772,0.03176496922969818
1659027034383639800,8.802639892578124,0.003359756199643016,-0.009162971749901772,0.031154103577136993
1659027034393309700,8.812309814453124,0.002443459117785096,-0.00946840364485979,0.03329212963581085
1659027034402979300,8.821979248046874,0.0027488914784044027,-0.010079269297420979,0.033597562462091446
1659027034412649200,8.831649169921874,0.003970621153712273,-0.00946840364485979,0.03390299528837204
1659027034422318800,8.84131884765625,0.003359756199643016,-0.009162971749901772,0.033597562462091446
1659027034431988500,8.850988525390624,0.003970621153712273,-0.009773836471140385,0.033597562462091446
1659027034441658400,8.860658447265624,0.003970621153712273,-0.010079269297420979,0.03176496922969818
1659027034451328300,8.870328369140625,0.003665188793092966,-0.010384701192378998,0.030543239787220955
1659027034460998000,8.879997802734374,0.003359756199643016,-0.009773836471140385,0.031154103577136993
1659027034470667500,8.88966748046875,0.003359756199643016,-0.010384701192378998,0.0308486707508564
1659027034480337400,8.89933740234375,0.004276053514331579,-0.009162971749901772,0.029932374134659767
1659027034490007000,8.909007080078124,0.0030543238390237093,-0.009162971749901772,0.03145953640341759
1659027034499677000,8.918677001953125,0.003359756199643016,-0.009773836471140385,0.03298669680953026
1659027034509346800,8.928346923828125,0.003359756199643016,-0.00946840364485979,0.03543015569448471
1659027034519016400,8.938016357421875,0.0030543238390237093,-0.008857538923621178,0.03543015569448471
1659027034528686000,8.94768603515625,0.0030543238390237093,-0.008552107028663158,0.03543015569448471
1659027034538356000,8.95735595703125,0.003359756199643016,-0.009162971749901772,0.0360410213470459
1659027034548025900,8.96702587890625,0.0030543238390237093,-0.009162971749901772,0.03543015569448471
1659027034557695500,8.976695556640625,0.003359756199643016,-0.008552107028663158,0.03543015569448471
1659027034567365000,8.986365234375,0.003359756199643016,-0.008246674202382565,0.03481929376721382
1659027034577035000,8.996034912109375,0.0030543238390237093,-0.00946840364485979,0.03481929376721382
1659027034586704600,9.00570458984375,0.003665188793092966,-0.009162971749901772,0.033597562462091446
1659027034596374500,9.01537451171875,0.0030543238390237093,-0.00946840364485979,0.032681263983249664
1659027034606044400,9.02504443359375,0.003970621153712273,-0.00946840364485979,0.031154103577136993
1659027034615714000,9.034714111328125,0.003970621153712273,-0.010079269297420979,0.0308486707508564
1659027034625383700,9.0443837890625,0.003665188793092966,-0.010384701192378998,0.029626941308379173
1659027034635053600,9.054053466796875,0.0027488914784044027,-0.010690134018659592,0.029932374134659767
1659027034644723500,9.063723388671875,0.0030543238390237093,-0.010690134018659592,0.029626941308379173
1659027034654393000,9.07339306640625,0.003665188793092966,-0.010384701192378998,0.031154103577136993
1659027034664062700,9.083062744140625,0.0030543238390237093,-0.010690134018659592,0.03145953640341759
1659027034673732600,9.092732666015625,0.003665188793092966,-0.00946840364485979,0.032070402055978775
1659027034683402200,9.10240234375,0.003359756199643016,-0.00946840364485979,0.032681263983249664
1659027034693072100,9.112072021484375,0.003665188793092966,-0.00946840364485979,0.03298669680953026
1659027034702742000,9.121741943359375,0.003665188793092966,-0.00946840364485979,0.03390299528837204
1659027034712411600,9.13141162109375,0.0030543238390237093,-0.008857538923621178,0.03237583488225937
1659027034722081300,9.141081298828125,0.002443459117785096,-0.008857538923621178,0.03329212963581085
1659027034731751200,9.150751220703125,0.003359756199643016,-0.009773836471140385,0.033597562462091446
1659027034741421000,9.160421142578125,0.0030543238390237093,-0.009162971749901772,0.032681263983249664
1659027034751090700,9.170090576171875,0.0030543238390237093,-0.00946840364485979,0.03329212963581085
1659027034760760600,9.179760498046875,0.003970621153712273,-0.00946840364485979,0.03329212963581085
1659027034770430200,9.18943017578125,0.0030543238390237093,-0.009162971749901772,0.034208428114652634
1659027034780099800,9.199099853515625,0.003665188793092966,-0.00946840364485979,0.034208428114652634
1659027034789769700,9.208769775390625,0.0030543238390237093,-0.007941242307424545,0.035124726593494415
1659027034799439600,9.218439697265625,0.003970621153712273,-0.007941242307424545,0.033597562462091446
1659027034809109200,9.228109130859375,0.003665188793092966,-0.008246674202382565,0.035124726593494415
1659027034818779000,9.23777880859375,0.0030543238390237093,-0.008857538923621178,0.03543015569448471
1659027034828448800,9.24744873046875,0.0030543238390237093,-0.008857538923621178,0.0360410213470459
1659027034838118700,9.25711865234375,0.0027488914784044027,-0.008857538923621178,0.034208428114652634
1659027034847788300,9.266788330078125,0.003970621153712273,-0.008857538923621178,0.03481929376721382
1659027034857458200,9.276458251953125,0.003359756199643016,-0.008857538923621178,0.03451386094093323
1659027034867127800,9.2861279296875,0.003359756199643016,-0.010384701192378998,0.03329212963581085
1659027034876797400,9.29579736328125,0.003665188793092966,-0.010079269297420979,0.033597562462091446
1659027034886467300,9.30546728515625,0.003665188793092966,-0.009773836471140385,0.033597562462091446
1659027034896137200,9.31513720703125,0.003359756199643016,-0.009162971749901772,0.032070402055978775
1659027034905806800,9.324806884765625,0.003665188793092966,-0.008552107028663158,0.032681263983249664
1659027034915476500,9.3344765625,0.003359756199643016,-0.008552107028663158,0.03390299528837204
1659027034925146400,9.344146484375,0.003359756199643016,-0.008552107028663158,0.034208428114652634
1659027034934816300,9.353816162109375,0.0027488914784044027,-0.008552107028663158,0.03481929376721382
1659027034944486000,9.36348583984375,0.0030543238390237093,-0.008552107028663158,0.035735588520765305
1659027034954155800,9.37315576171875,0.0030543238390237093,-0.008246674202382565,0.03543015569448471
1659027034963825400,9.382825439453125,0.0027488914784044027,-0.008246674202382565,0.035735588520765305
1659027034973495000,9.3924951171875,0.002443459117785096,-0.008552107028663158,0.03543015569448471
1659027034983165000,9.4021650390625,0.0030543238390237093,-0.008552107028663158,0.03481929376721382
1659027034992834800,9.411834716796875,0.003359756199643016,-0.00946840364485979,0.03390299528837204
1659027035002504400,9.42150439453125,0.003665188793092966,-0.00946840364485979,0.03298669680953026
1659027035012174000,9.431174072265625,0.003970621153712273,-0.009773836471140385,0.032070402055978775
1659027035021844000,9.440843994140625,0.003970621153712273,-0.009773836471140385,0.031154103577136993
1659027035031513900,9.450513916015625,0.0027488914784044027,-0.009162971749901772,0.03145953640341759
1659027035041183500,9.46018359375,0.003665188793092966,-0.00946840364485979,0.0308486707508564
1659027035050853400,9.469853271484375,0.003665188793092966,-0.010079269297420979,0.031154103577136993
1659027035060523000,9.47952294921875,0.003665188793092966,-0.010079269297420979,0.0308486707508564
1659027035070192600,9.489192626953125,0.003970621153712273,-0.010690134018659592,0.029626941308379173
1659027035079862500,9.498862548828125,0.003359756199643016,-0.010690134018659592,0.029932374134659767
1659027035089532400,9.508532470703125,0.003665188793092966,-0.010995565913617611,0.0308486707508564
1659027035099202000,9.5182021484375,0.003970621153712273,-0.010079269297420979,0.03176496922969818
1659027035108871700,9.52787158203125,0.003359756199643016,-0.00946840364485979,0.03237583488225937
1659027035118541600,9.53754150390625,0.003359756199643016,-0.00946840364485979,0.03298669680953026
1659027035128211500,9.54721142578125,0.004276053514331579,-0.008857538923621178,0.03329212963581085
1659027035137881000,9.556881103515625,0.003970621153712273,-0.009773836471140385,0.03329212963581085
1659027035147551000,9.566551025390625,0.003665188793092966,-0.010995565913617611,0.03145953640341759
1659027035157220600,9.576220703125,0.003665188793092966,-0.011300998739898205,0.02932151034474373
1659027035166890500,9.585890380859375,0.004581485874950886,-0.010995565913617611,0.029016077518463135
1659027035176560000,9.59556005859375,0.003359756199643016,-0.010690134018659592,0.029016077518463135
1659027035186230000,9.60522998046875,0.0030543238390237093,-0.010995565913617611,0.029932374134659767
1659027035195899600,9.614899658203125,0.003665188793092966,-0.010079269297420979,0.03176496922969818
1659027035205569500,9.624569580078125,0.003665188793092966,-0.010079269297420979,0.031154103577136993
1659027035215239200,9.6342392578125,0.003665188793092966,-0.010384701192378998,0.03176496922969818
1659027035224909000,9.643908935546875,0.0027488914784044027,-0.009773836471140385,0.032070402055978775
1659027035234578700,9.65357861328125,0.0030543238390237093,-0.009773836471140385,0.032070402055978775
1659027035244248600,9.66324853515625,0.0030543238390237093,-0.009773836471140385,0.03237583488225937
1659027035253918200,9.672918212890625,0.0030543238390237093,-0.008552107028663158,0.03329212963581085
1659027035263588000,9.682588134765625,0.0027488914784044027,-0.00946840364485979,0.034208428114652634
1659027035273257700,9.6922578125,0.003665188793092966,-0.009162971749901772,0.03390299528837204
1659027035282927600,9.701927734375,0.0027488914784044027,-0.00946840364485979,0.03237583488225937
1659027035292597200,9.71159716796875,0.003665188793092966,-0.009773836471140385,0.03237583488225937
1659027035302267100,9.72126708984375,0.003359756199643016,-0.009162971749901772,0.03298669680953026
1659027035311936800,9.730936767578125,0.0030543238390237093,-0.009162971749901772,0.03298669680953026
1659027035321606700,9.740606689453125,0.003665188793092966,-0.00946840364485979,0.032070402055978775
1659027035331276300,9.7502763671875,0.003970621153712273,-0.010079269297420979,0.03237583488225937
1659027035340946200,9.7599462890625,0.004276053514331579,-0.009162971749901772,0.031154103577136993
1659027035350615800,9.76961572265625,0.003359756199643016,-0.010690134018659592,0.031154103577136993
1659027035360285700,9.77928564453125,0.003359756199643016,-0.009162971749901772,0.03329212963581085
1659027035369955300,9.788955322265625,0.003665188793092966,-0.009773836471140385,0.032681263983249664
1659027035379625200,9.798625244140625,0.003359756199643016,-0.009162971749901772,0.03390299528837204
1659027035389294800,9.808294921875,0.0027488914784044027,-0.00946840364485979,0.03481929376721382
1659027035398964700,9.81796484375,0.003359756199643016,-0.009162971749901772,0.03481929376721382
1659027035408634400,9.82763427734375,0.0027488914784044027,-0.008552107028663158,0.03481929376721382
1659027035418304300,9.83730419921875,0.0030543238390237093,-0.009162971749901772,0.03390299528837204
1659027035427974000,9.846973876953125,0.003665188793092966,-0.008552107028663158,0.03451386094093323
1659027035437643800,9.856643798828125,0.003359756199643016,-0.009162971749901772,0.03390299528837204
1659027035447313400,9.8663134765625,0.0030543238390237093,-0.009162971749901772,0.033597562462091446
1659027035456983300,9.8759833984375,0.003665188793092966,-0.008246674202382565,0.03298669680953026
1659027035466653000,9.88565283203125,0.0027488914784044027,-0.008552107028663158,0.033597562462091446
1659027035476322800,9.89532275390625,0.0021380267571657896,-0.008857538923621178,0.032681263983249664
1659027035485992400,9.904992431640625,0.003665188793092966,-0.00946840364485979,0.032681263983249664
1659027035495662300,9.914662353515626,0.003665188793092966,-0.009162971749901772,0.03298669680953026
1659027035505332000,9.92433203125,0.0030543238390237093,-0.008552107028663158,0.033597562462091446
1659027035515001900,9.934001953125,0.003665188793092966,-0.008246674202382565,0.03329212963581085
1659027035524671500,9.94367138671875,0.003359756199643016,-0.008857538923621178,0.03329212963581085
1659027035534341400,9.95334130859375,0.003359756199643016,-0.008552107028663158,0.03543015569448471
1659027035544011000,9.963010986328126,0.003359756199643016,-0.007941242307424545,0.035735588520765305
1659027035553681000,9.972680908203126,0.003359756199643016,-0.007941242307424545,0.035735588520765305
1659027035563350800,9.982350830078126,0.003359756199643016,-0.007635809946805239,0.0360410213470459
1659027035573020400,9.9920205078125,0.003665188793092966,-0.008246674202382565,0.03756818547844887
1659027035582690000,10.00168994140625,0.0027488914784044027,-0.007330377586185932,0.036651886999607086
1659027035592360000,10.01135986328125,0.0021380267571657896,-0.007941242307424545,0.03634645417332649
1659027035602029800,10.02102978515625,0.002443459117785096,-0.007941242307424545,0.036651886999607086
1659027035611699500,10.030699462890626,0.002443459117785096,-0.008552107028663158,0.035124726593494415
1659027035621369000,10.040369140625,0.003359756199643016,-0.008857538923621178,0.03634645417332649
1659027035631039000,10.0500390625,0.0027488914784044027,-0.008857538923621178,0.036651886999607086
1659027035640708600,10.05970849609375,0.003665188793092966,-0.008552107028663158,0.036651886999607086
1659027035650378500,10.06937841796875,0.003970621153712273,-0.008552107028663158,0.03634645417332649
1659027035660048400,10.07904833984375,0.0030543238390237093,-0.008246674202382565,0.03481929376721382
1659027035669718000,10.088718017578126,0.003970621153712273,-0.009162971749901772,0.03481929376721382
1659027035679387600,10.0983876953125,0.003665188793092966,-0.008246674202382565,0.03451386094093323
1659027035689057500,10.1080576171875,0.0027488914784044027,-0.008857538923621178,0.03481929376721382
1659027035698727400,10.1177275390625,0.003665188793092966,-0.008552107028663158,0.034208428114652634
1659027035708397000,10.12739697265625,0.003665188793092966,-0.008857538923621178,0.03451386094093323
1659027035718066700,10.137066650390626,0.0030543238390237093,-0.008552107028663158,0.034208428114652634
1659027035727736600,10.146736572265626,0.0030543238390237093,-0.008552107028663158,0.033597562462091446
1659027035737406500,10.156406494140626,0.0030543238390237093,-0.008857538923621178,0.03390299528837204
1659027035747076000,10.166076171875,0.003970621153712273,-0.008246674202382565,0.03481929376721382
1659027035756746000,10.17574609375,0.003359756199643016,-0.008857538923621178,0.03390299528837204
1659027035766415600,10.18541552734375,0.003359756199643016,-0.008552107028663158,0.03543015569448471
1659027035776085500,10.19508544921875,0.003665188793092966,-0.008857538923621178,0.03390299528837204
1659027035785755100,10.204755126953126,0.003359756199643016,-0.00946840364485979,0.03298669680953026
1659027035795425000,10.214425048828126,0.003970621153712273,-0.009162971749901772,0.03451386094093323
1659027035805094700,10.2240947265625,0.003359756199643016,-0.009162971749901772,0.03481929376721382
1659027035814764300,10.233764404296876,0.003359756199643016,-0.00946840364485979,0.03298669680953026
1659027035824434200,10.24343408203125,0.003665188793092966,-0.008857538923621178,0.03298669680953026
1659027035834104000,10.25310400390625,0.0027488914784044027,-0.00946840364485979,0.03329212963581085
1659027035843773700,10.262773681640626,0.003665188793092966,-0.009162971749901772,0.034208428114652634
1659027035853443600,10.272443603515624,0.0030543238390237093,-0.009162971749901772,0.033597562462091446
1659027035863113200,10.28211328125,0.0027488914784044027,-0.00946840364485979,0.03481929376721382
1659027035872783000,10.291783203125,0.003665188793092966,-0.009162971749901772,0.03451386094093323
1659027035882452700,10.30145263671875,0.0027488914784044027,-0.009162971749901772,0.033597562462091446
1659027035892122600,10.31112255859375,0.003359756199643016,-0.009162971749901772,0.03329212963581085
1659027035901792300,10.320792236328124,0.003359756199643016,-0.00946840364485979,0.03329212963581085
1659027035911462100,10.330462158203124,0.0030543238390237093,-0.009162971749901772,0.033597562462091446
1659027035921131800,10.3401318359375,0.003359756199643016,-0.009162971749901772,0.03451386094093323
1659027035930801700,10.3498017578125,0.0027488914784044027,-0.00946840364485979,0.03298669680953026
1659027035940471300,10.35947119140625,0.003359756199643016,-0.008857538923621178,0.033597562462091446
1659027035950141200,10.36914111328125,0.003665188793092966,-0.010079269297420979,0.032681263983249664
1659027035959810800,10.378810791015624,0.004581485874950886,-0.009773836471140385,0.03390299528837204
1659027035969480700,10.388480712890624,0.003665188793092966,-0.009773836471140385,0.03176496922969818
1659027035979150300,10.398150390625,0.003970621153712273,-0.009773836471140385,0.03237583488225937
1659027035988820200,10.4078203125,0.0030543238390237093,-0.009162971749901772,0.03298669680953026
1659027035998489900,10.41748974609375,0.003665188793092966,-0.00946840364485979,0.03145953640341759
1659027036008159700,10.42715966796875,0.003665188793092966,-0.009162971749901772,0.03298669680953026
1659027036017829400,10.436829345703124,0.003359756199643016,-0.008857538923621178,0.03176496922969818
1659027036027499300,10.446499267578124,0.003665188793092966,-0.00946840364485979,0.03176496922969818
1659027036037169000,10.4561689453125,0.003359756199643016,-0.009162971749901772,0.032070402055978775
1659027036046838800,10.4658388671875,0.003359756199643016,-0.008857538923621178,0.03329212963581085
1659027036056508400,10.47550830078125,0.003359756199643016,-0.010079269297420979,0.032681263983249664
1659027036066178300,10.48517822265625,0.003359756199643016,-0.009773836471140385,0.032070402055978775
1659027036075848000,10.494847900390624,0.003359756199643016,-0.010079269297420979,0.032070402055978775
1659027036085517800,10.504517822265624,0.003665188793092966,-0.009773836471140385,0.03176496922969818
1659027036095187500,10.5141875,0.003970621153712273,-0.00946840364485979,0.032070402055978775
1659027036104857300,10.523857421875,0.0030543238390237093,-0.010079269297420979,0.03176496922969818
1659027036114527200,10.53352734375,0.003359756199643016,-0.009162971749901772,0.03237583488225937
1659027036124196900,10.54319677734375,0.003359756199643016,-0.010079269297420979,0.032070402055978775
1659027036133866500,10.552866455078124,0.0030543238390237093,-0.00946840364485979,0.032681263983249664
1659027036143536400,10.562536376953124,0.003359756199643016,-0.00946840364485979,0.03176496922969818
1659027036153206300,10.572206298828124,0.003665188793092966,-0.009162971749901772,0.03176496922969818
1659027036162876000,10.5818759765625,0.004276053514331579,-0.00946840364485979,0.03237583488225937
1659027036172545500,10.591545654296874,0.0030543238390237093,-0.010079269297420979,0.03298669680953026
1659027036182215400,10.60121533203125,0.003665188793092966,-0.009162971749901772,0.033597562462091446
1659027036191885300,10.61088525390625,0.003359756199643016,-0.00946840364485979,0.032681263983249664
1659027036201555000,10.620554931640624,0.0030543238390237093,-0.009162971749901772,0.032070402055978775
1659027036211224800,10.630224853515625,0.0030543238390237093,-0.00946840364485979,0.03237583488225937
1659027036220894500,10.63989453125,0.004276053514331579,-0.00946840364485979,0.03390299528837204
1659027036230564000,10.649564208984375,0.003665188793092966,-0.00946840364485979,0.03390299528837204
1659027036240234000,10.65923388671875,0.0030543238390237093,-0.008857538923621178,0.034208428114652634
1659027036249903900,10.66890380859375,0.003665188793092966,-0.008857538923621178,0.034208428114652634
1659027036259573500,10.678573486328125,0.003359756199643016,-0.009773836471140385,0.03298669680953026
1659027036269243100,10.6882431640625,0.003359756199643016,-0.00946840364485979,0.03390299528837204
1659027036278913000,10.6979130859375,0.0027488914784044027,-0.008857538923621178,0.03329212963581085
1659027036288583000,10.7075830078125,0.0030543238390237093,-0.009162971749901772,0.03176496922969818
1659027036298252500,10.71725244140625,0.002443459117785096,-0.00946840364485979,0.032681263983249664
1659027036307922400,10.72692236328125,0.003970621153712273,-0.00946840364485979,0.032681263983249664
1659027036317592000,10.736592041015625,0.0027488914784044027,-0.010690134018659592,0.032070402055978775
1659027036327262000,10.746261962890625,0.003665188793092966,-0.00946840364485979,0.03176496922969818
1659027036336931600,10.755931640625,0.0030543238390237093,-0.010079269297420979,0.032681263983249664
1659027036346601500,10.7656015625,0.003665188793092966,-0.009773836471140385,0.03145953640341759
1659027036356271000,10.77527099609375,0.003665188793092966,-0.00946840364485979,0.03237583488225937
1659027036365941000,10.78494091796875,0.003359756199643016,-0.009773836471140385,0.03237583488225937
1659027036375610600,10.794610595703125,0.0027488914784044027,-0.009773836471140385,0.03145953640341759
1659027036385280500,10.804280517578125,0.002443459117785096,-0.00946840364485979,0.031154103577136993
1659027036394950100,10.8139501953125,0.003665188793092966,-0.00946840364485979,0.03237583488225937
1659027036404620000,10.8236201171875,0.0030543238390237093,-0.009162971749901772,0.032681263983249664
1659027036414289700,10.83328955078125,0.0030543238390237093,-0.009162971749901772,0.033597562462091446
1659027036423959600,10.84295947265625,0.003359756199643016,-0.009162971749901772,0.03298669680953026
1659027036433629200,10.852629150390625,0.0030543238390237093,-0.010079269297420979,0.03329212963581085
1659027036443299000,10.862299072265625,0.003665188793092966,-0.009773836471140385,0.03329212963581085
1659027036452968700,10.87196875,0.003359756199643016,-0.00946840364485979,0.034208428114652634
1659027036462638600,10.881638671875,0.003665188793092966,-0.00946840364485979,0.03451386094093323
1659027036472308500,10.89130859375,0.003970621153712273,-0.008246674202382565,0.03390299528837204
1659027036481978000,10.90097802734375,0.003359756199643016,-0.009162971749901772,0.032070402055978775
1659027036491647700,10.910647705078125,0.0030543238390237093,-0.009162971749901772,0.03390299528837204
1659027036501317600,10.920317626953125,0.002443459117785096,-0.00946840364485979,0.03329212963581085
1659027036510987500,10.929987548828125,0.0027488914784044027,-0.00946840364485979,0.03329212963581085
1659027036520657200,10.9396572265625,0.0030543238390237093,-0.009162971749901772,0.03329212963581085
1659027036530326800,10.949326904296875,0.004276053514331579,-0.009162971749901772,0.03451386094093323
1659027036539996700,10.95899658203125,0.0030543238390237093,-0.008857538923621178,0.033597562462091446
1659027036549666300,10.968666259765625,0.003665188793092966,-0.008857538923621178,0.032070402055978775
1659027036559336200,10.978336181640625,0.003665188793092966,-0.009162971749901772,0.03329212963581085
1659027036569006000,10.988006103515625,0.0030543238390237093,-0.00946840364485979,0.032070402055978775
1659027036578675700,10.99767578125,0.003359756199643016,-0.009773836471140385,0.03329212963581085
1659027036588345300,11.007345458984375,0.003665188793092966,-0.00946840364485979,0.03237583488225937
1659027036598015200,11.01701513671875,0.004276053514331579,-0.009162971749901772,0.03176496922969818
1659027036607685000,11.02668505859375,0.004276053514331579,-0.009773836471140385,0.032070402055978775
1659027036617354800,11.036354736328125,0.003665188793092966,-0.009773836471140385,0.0308486707508564
1659027036627024600,11.046024658203125,0.0030543238390237093,-0.008246674202382565,0.03237583488225937
1659027036636694300,11.0556943359375,0.0030543238390237093,-0.009162971749901772,0.03329212963581085
1659027036646364200,11.0653642578125,0.0030543238390237093,-0.009773836471140385,0.03298669680953026
1659027036656033800,11.07503369140625,0.0030543238390237093,-0.008552107028663158,0.032070402055978775
1659027036665703700,11.08470361328125,0.0027488914784044027,-0.008857538923621178,0.032681263983249664
1659027036675373300,11.094373291015625,0.0027488914784044027,-0.010079269297420979,0.03390299528837204
1659027036685043200,11.104043212890625,0.003665188793092966,-0.00946840364485979,0.03237583488225937
1659027036694712800,11.113712890625,0.003359756199643016,-0.00946840364485979,0.03329212963581085
1659027036704382700,11.1233828125,0.003665188793092966,-0.00946840364485979,0.03390299528837204
1659027036714052400,11.13305224609375,0.004581485874950886,-0.009162971749901772,0.033597562462091446
1659027036723722200,11.14272216796875,0.003665188793092966,-0.00946840364485979,0.03390299528837204
1659027036733392000,11.152391845703125,0.003665188793092966,-0.00946840364485979,0.03329212963581085
1659027036743061800,11.162061767578125,0.003359756199643016,-0.009162971749901772,0.03451386094093323
1659027036752731400,11.1717314453125,0.0027488914784044027,-0.008552107028663158,0.03329212963581085
1659027036762401300,11.1814013671875,0.0030543238390237093,-0.00946840364485979,0.03329212963581085
1659027036772071000,11.19107080078125,0.003359756199643016,-0.009773836471140385,0.034208428114652634
1659027036781740800,11.20074072265625,0.003970621153712273,-0.00946840364485979,0.034208428114652634
1659027036791410400,11.210410400390625,0.003970621153712273,-0.00946840364485979,0.032681263983249664
1659027036801080300,11.220080322265625,0.0030543238390237093,-0.008552107028663158,0.03390299528837204
1659027036810750000,11.22975,0.003970621153712273,-0.010079269297420979,0.03329212963581085
1659027036820419800,11.239419921875,0.003665188793092966,-0.009773836471140385,0.03237583488225937
1659027036830089700,11.24908984375,0.003359756199643016,-0.009162971749901772,0.032070402055978775
1659027036839759400,11.25875927734375,0.003665188793092966,-0.009162971749901772,0.03176496922969818
1659027036849429000,11.268428955078125,0.003665188793092966,-0.00946840364485979,0.032681263983249664
1659027036859099000,11.278098876953125,0.003359756199643016,-0.009773836471140385,0.03298669680953026
1659027036868768800,11.287768798828125,0.0021380267571657896,-0.00946840364485979,0.03298669680953026
1659027036878438400,11.2974384765625,0.0027488914784044027,-0.008857538923621178,0.033597562462091446
1659027036888108000,11.30710791015625,0.002443459117785096,-0.009162971749901772,0.03298669680953026
1659027036897778000,11.31677783203125,0.0030543238390237093,-0.00946840364485979,0.03329212963581085
1659027036907447800,11.32644775390625,0.001221729558892548,0.024434590712189674,0.061391908675432205
1659027036917117400,11.336117431640625,0.001832594396546483,-0.001221729558892548,0.04428769648075104
1659027036926787300,11.345787353515625,0.003665188793092966,-0.013439024798572063,0.021685699000954628
1659027036936457000,11.35545703125,0.003665188793092966,-0.013439024798572063,0.02626718580722809
1659027036946126800,11.365126953125,0.0030543238390237093,-0.013439024798572063,0.028405211865901947
1659027036955796500,11.37479638671875,0.0027488914784044027,-0.017104214057326317,0.02626718580722809
1659027036965466400,11.38446630859375,0.003359756199643016,-0.015577051788568497,0.03023780696094036
1659027036975136000,11.394135986328125,0.003359756199643016,-0.013744457624852657,0.03176496922969818
