time,seconds_elapsed,z,y,x
1659027025664550700,0.083550537109375,-289.9312744140625,1125.50634765625,57.69375228881836
1659027025674550500,0.093550537109375,-290.0062561035156,1125.8062744140625,57.91875076293945
1659027025684550700,0.103550537109375,-289.2562561035156,1126.0125732421875,57.73125076293945
1659027025694550500,0.113550537109375,-288.9937744140625,1125.7313232421875,57.76875305175781
1659027025704550700,0.123550537109375,-288.9937744140625,1125.6375732421875,57.63750076293945
1659027025714550500,0.133550537109375,-288.8812561035156,1125.7313232421875,57.468753814697266
1659027025724550700,0.143550537109375,-288.6750183105469,1125.862548828125,57.22500228881836
1659027025734550500,0.153550537109375,-288.8062744140625,1125.6375732421875,57.20625305175781
1659027025744550700,0.163550537109375,-288.6750183105469,1125.5438232421875,57.11250305175781
1659027025754550500,0.173550537109375,-288.5812683105469,1125.393798828125,56.98125076293945
1659027025764550700,0.183550537109375,-288.7125244140625,1125.2625732421875,57.01875305175781
1659027025774550500,0.193550537109375,-288.75,1125.3563232421875,57.13125228881836
1659027025784550700,0.203550537109375,-288.6937561035156,1125.46875,56.868751525878906
1659027025794550500,0.213550537109375,-288.6750183105469,1125.393798828125,56.906253814697266
1659027025804550700,0.223550537109375,-288.73126220703125,1125.2437744140625,57.150001525878906
1659027025814550500,0.233550537109375,-288.4875183105469,1125.5625,57.26250076293945
1659027025824550700,0.243550537109375,-288.35626220703125,1125.65625,57.20625305175781
1659027025834550500,0.253550537109375,-288.3000183105469,1125.7313232421875,57.187503814697266
1659027025844550700,0.263550537109375,-288.4125061035156,1125.9000244140625,57.07500076293945
1659027025854550500,0.273550537109375,-288.4125061035156,1126.0125732421875,56.962501525878906
1659027025864550700,0.283550537109375,-288.4312744140625,1125.88134765625,57.150001525878906
1659027025874550500,0.293550537109375,-288.5625,1125.97509765625,57.187503814697266
1659027025884550700,0.303550537109375,-288.35626220703125,1126.0875244140625,57.13125228881836
1659027025894550500,0.313550537109375,-288.5062561035156,1126.050048828125,57.01875305175781
1659027025904550700,0.323550537109375,-288.7687683105469,1125.9000244140625,57.01875305175781
1659027025914550500,0.333550537109375,-288.7875061035156,1126.0125732421875,57.093753814697266
1659027025924550700,0.343550537109375,-288.7875061035156,1125.9188232421875,57.03750228881836
1659027025934550500,0.353550537109375,-288.7875061035156,1125.9188232421875,56.812503814697266
1659027025944550700,0.363550537109375,-288.91876220703125,1126.0875244140625,56.812503814697266
1659027025954550500,0.373550537109375,-288.7875061035156,1126.1063232421875,56.85000228881836
1659027025964550700,0.383550537109375,-289.0875244140625,1125.956298828125,56.75625228881836
1659027025974550500,0.393550537109375,-289.10626220703125,1125.75,56.775001525878906
1659027025984550700,0.403550537109375,-288.8812561035156,1125.88134765625,56.681251525878906
1659027025994550500,0.413550537109375,-288.7875061035156,1125.768798828125,56.437503814697266
1659027026004550700,0.423550537109375,-288.7875061035156,1125.69384765625,56.587501525878906
1659027026014550500,0.433550537109375,-288.9562683105469,1125.675048828125,56.64375305175781
1659027026024550700,0.443550537109375,-289.01251220703125,1125.60009765625,56.812503814697266
1659027026034550500,0.453550537109375,-288.9562683105469,1125.4500732421875,56.66250228881836
1659027026044550700,0.463550537109375,-289.1437683105469,1125.4500732421875,56.73750305175781
1659027026054550500,0.473550537109375,-289.0500183105469,1125.581298828125,56.587501525878906
1659027026064550700,0.483550537109375,-289.0500183105469,1125.675048828125,56.83125305175781
1659027026074550500,0.493550537109375,-289.01251220703125,1125.675048828125,57.01875305175781
1659027026084550700,0.503550537109375,-289.01251220703125,1125.88134765625,57.07500076293945
1659027026094550500,0.513550537109375,-288.9750061035156,1125.6187744140625,57.150001525878906
1659027026104550700,0.523550537109375,-288.6750183105469,1125.7313232421875,57.11250305175781
1659027026114550500,0.533550537109375,-288.6937561035156,1125.9375,57.281253814697266
1659027026124550700,0.543550537109375,-288.375,1126.125,57.337501525878906
1659027026134550500,0.553550537109375,-288.1875,1126.125,57.41250228881836
1659027026144550700,0.563550537109375,-288.0375061035156,1125.78759765625,57.54375076293945
1659027026154550500,0.573550537109375,-288.16876220703125,1125.9188232421875,57.618751525878906
1659027026164550700,0.583550537109375,-288.0375061035156,1125.8250732421875,57.50625228881836
1659027026174550500,0.593550537109375,-287.90625,1126.050048828125,57.431251525878906
1659027026184550700,0.603550537109375,-288.2062683105469,1125.768798828125,57.20625305175781
1659027026194550500,0.613550537109375,-288.1875,1125.46875,57.22500228881836
1659027026204550700,0.623550537109375,-288.2437744140625,1125.375,57.13125228881836
1659027026214550500,0.633550537109375,-288.26251220703125,1125.375,57.337501525878906
1659027026224550700,0.643550537109375,-288.46875,1125.75,57.056251525878906
1659027026234550500,0.653550537109375,-288.5812683105469,1125.5250244140625,56.94375228881836
1659027026244550700,0.663550537109375,-288.6937561035156,1125.4312744140625,56.868751525878906
1659027026254550500,0.673550537109375,-288.7125244140625,1125.3563232421875,56.85000228881836
1659027026264550700,0.683550537109375,-288.3937683105469,1125.5625,56.868751525878906
1659027026274550500,0.693550537109375,-288.45001220703125,1125.6375732421875,56.73750305175781
1659027026284550700,0.703550537109375,-288.54376220703125,1125.8062744140625,56.775001525878906
1659027026294550500,0.713550537109375,-288.45001220703125,1125.9375,56.66250228881836
1659027026304550700,0.723550537109375,-288.2250061035156,1125.8062744140625,56.73750305175781
1659027026314550500,0.733550537109375,-288.1312561035156,1125.88134765625,56.681251525878906
1659027026324550700,0.743550537109375,-287.9250183105469,1125.9000244140625,56.64375305175781
1659027026334550500,0.753550537109375,-288.0187683105469,1126.03125,56.681251525878906
1659027026344550700,0.763550537109375,-288.0375061035156,1125.956298828125,56.70000076293945
1659027026354550500,0.773550537109375,-287.98126220703125,1126.03125,56.56875228881836
1659027026364550700,0.783550537109375,-288.07501220703125,1125.862548828125,56.56875228881836
1659027026374550500,0.793550537109375,-288.4875183105469,1125.7125244140625,56.343753814697266
1659027026384550700,0.803550537109375,-288.7687683105469,1125.675048828125,56.36250305175781
1659027026394550500,0.813550537109375,-288.8062744140625,1125.5438232421875,56.32500076293945
1659027026404550700,0.823550537109375,-289.0687561035156,1125.581298828125,56.45625305175781
1659027026414550500,0.833550537109375,-288.9937744140625,1125.65625,56.55000305175781
1659027026424550700,0.843550537109375,-289.01251220703125,1125.69384765625,56.681251525878906
1659027026434550500,0.853550537109375,-288.9562683105469,1125.6375732421875,56.98125076293945
1659027026444550700,0.863550537109375,-288.82501220703125,1125.60009765625,56.962501525878906
1659027026454550500,0.873550537109375,-288.6750183105469,1125.6375732421875,57.093753814697266
1659027026464550700,0.883550537109375,-288.6187744140625,1125.7125244140625,57.13125228881836
1659027026474550500,0.893550537109375,-288.4875183105469,1125.8062744140625,57.07500076293945
1659027026484550700,0.903550537109375,-288.375,1125.88134765625,57.01875305175781
1659027026494550500,0.913550537109375,-288.3187561035156,1125.768798828125,56.906253814697266
1659027026504550700,0.923550537109375,-288.3937683105469,1125.6375732421875,56.962501525878906
1659027026514550500,0.933550537109375,-288.6937561035156,1125.675048828125,56.775001525878906
1659027026524550700,0.943550537109375,-288.73126220703125,1125.8062744140625,56.75625228881836
1659027026534550500,0.953550537109375,-288.6750183105469,1125.65625,56.70000076293945
1659027026544550700,0.963550537109375,-288.6750183105469,1125.5625,56.51250076293945
1659027026554550500,0.973550537109375,-288.5250244140625,1125.60009765625,56.70000076293945
1659027026564550700,0.983550537109375,-288.46875,1125.78759765625,56.681251525878906
1659027026574550500,0.993550537109375,-288.46875,1125.6187744140625,56.98125076293945
1659027026584550700,1.003550537109375,-288.3187561035156,1125.7313232421875,56.775001525878906
1659027026594550500,1.013550537109375,-288.0187683105469,1125.78759765625,56.868751525878906
1659027026604550700,1.023550537109375,-287.8500061035156,1125.7125244140625,56.98125076293945
1659027026614550500,1.033550537109375,-287.9625244140625,1125.862548828125,57.03750228881836
1659027026624550700,1.043550537109375,-287.90625,1125.78759765625,56.88750076293945
1659027026634550500,1.053550537109375,-288.2437744140625,1125.60009765625,57.093753814697266
1659027026644550700,1.063550537109375,-288.1312561035156,1125.31884765625,57.281253814697266
1659027026654550500,1.073550537109375,-288.09375,1125.300048828125,57.056251525878906
1659027026664550700,1.083550537109375,-288.09375,1125.1875,57.375003814697266
1659027026674550500,1.093550537109375,-288.2250061035156,1125.206298828125,57.431251525878906
1659027026684550700,1.103550537109375,-288.3000183105469,1125.28125,57.337501525878906
1659027026694550500,1.113550537109375,-288.26251220703125,1125.41259765625,57.375003814697266
1659027026704550700,1.123550537109375,-288.26251220703125,1125.6187744140625,57.750003814697266
1659027026714550500,1.133550537109375,-288.07501220703125,1126.06884765625,57.41250228881836
1659027026724550700,1.143550537109375,-288.1125183105469,1126.050048828125,57.093753814697266
1659027026734550500,1.153550537109375,-288.0375061035156,1126.125,57.13125228881836
1659027026744550700,1.163550537109375,-288.1500244140625,1126.35009765625,56.79375076293945
1659027026754550500,1.173550537109375,-287.90625,1126.237548828125,56.625003814697266
1659027026764550700,1.183550537109375,-287.8500061035156,1126.1812744140625,56.625003814697266
1659027026774550500,1.193550537109375,-287.6625061035156,1125.8250732421875,56.70000076293945
1659027026784550700,1.203550537109375,-287.6812744140625,1125.4500732421875,56.681251525878906
1659027026794550500,1.213550537109375,-287.71875,1125.018798828125,56.868751525878906
1659027026804550700,1.223550537109375,-287.7750244140625,1125.1875,57.150001525878906
1659027026814550500,1.233550537109375,-288.0187683105469,1125.09375,57.03750228881836
1659027026824550700,1.243550537109375,-288,1125.1688232421875,57.056251525878906
1659027026834550500,1.253550537109375,-288,1125.206298828125,57.093753814697266
1659027026844550700,1.263550537109375,-288.0375061035156,1125.0562744140625,57.056251525878906
1659027026854550500,1.273550537109375,-288.3187561035156,1125.300048828125,57.056251525878906
1659027026864550700,1.283550537109375,-288.4312744140625,1125.6187744140625,56.88750076293945
1659027026874550500,1.293550537109375,-288.4312744140625,1125.69384765625,56.73750305175781
1659027026884550700,1.303550537109375,-288.45001220703125,1125.41259765625,56.625003814697266
1659027026894550500,1.313550537109375,-288.46875,1125.5250244140625,56.79375076293945
1659027026904550700,1.323550537109375,-288.5062561035156,1125.31884765625,56.75625228881836
1659027026914550500,1.333550537109375,-288.91876220703125,1125.393798828125,57.000003814697266
1659027026924550700,1.343550537109375,-288.91876220703125,1125.393798828125,57.056251525878906
1659027026934550500,1.353550537109375,-288.5812683105469,1125.2437744140625,57.13125228881836
1659027026944550700,1.363550537109375,-288.54376220703125,1125.112548828125,57.187503814697266
1659027026954550500,1.373550537109375,-288.35626220703125,1125.28125,57.26250076293945
1659027026964550700,1.383550537109375,-288.1500244140625,1125.581298828125,57.31875228881836
1659027026974550500,1.393550537109375,-288.2250061035156,1125.75,57.243751525878906
1659027026984550700,1.403550537109375,-288.2062683105469,1125.8250732421875,57.26250076293945
1659027026994550500,1.413550537109375,-288.1500244140625,1125.7125244140625,57.03750228881836
1659027027004550700,1.423550537109375,-287.9625244140625,1125.7313232421875,57.03750228881836
1659027027014550500,1.433550537109375,-288.1500244140625,1125.9188232421875,56.906253814697266
1659027027024550700,1.443550537109375,-288.0562744140625,1126.06884765625,56.962501525878906
1659027027034550500,1.453550537109375,-288.3000183105469,1125.9937744140625,56.83125305175781
1659027027044550700,1.463550537109375,-288.3187561035156,1125.84375,56.66250228881836
1659027027054550500,1.473550537109375,-288.2062683105469,1125.8250732421875,56.531253814697266
1659027027064550700,1.483550537109375,-288.16876220703125,1125.862548828125,56.587501525878906
1659027027074550500,1.493550537109375,-288.1125183105469,1125.84375,56.718753814697266
1659027027084550700,1.503550537109375,-288.35626220703125,1126.050048828125,56.66250228881836
1659027027094550500,1.513550537109375,-288.26251220703125,1125.9937744140625,56.531253814697266
1659027027104550700,1.523550537109375,-288.2062683105469,1125.956298828125,56.45625305175781
1659027027114550500,1.533550537109375,-287.8687744140625,1126.03125,56.55000305175781
1659027027124550700,1.543550537109375,-287.8687744140625,1126.050048828125,56.70000076293945
1659027027134550500,1.553550537109375,-287.8125,1126.03125,56.906253814697266
1659027027144550700,1.563550537109375,-287.8312683105469,1126.1063232421875,56.98125076293945
1659027027154550500,1.573550537109375,-287.6812744140625,1126.35009765625,56.812503814697266
1659027027164550700,1.583550537109375,-287.6812744140625,1126.237548828125,56.83125305175781
1659027027174550500,1.593550537109375,-287.7750244140625,1125.97509765625,56.94375228881836
1659027027184550700,1.603550537109375,-287.8312683105469,1126.050048828125,57.07500076293945
1659027027194550500,1.613550537109375,-288.0562744140625,1125.862548828125,57.13125228881836
1659027027204550700,1.623550537109375,-288.07501220703125,1125.9000244140625,57.243751525878906
1659027027214550500,1.633550537109375,-287.90625,1125.9188232421875,57.11250305175781
1659027027224550700,1.643550537109375,-287.90625,1125.862548828125,57.01875305175781
1659027027234550500,1.653550537109375,-288.09375,1125.768798828125,57.13125228881836
1659027027244550700,1.663550537109375,-287.98126220703125,1125.9937744140625,57.03750228881836
1659027027254550500,1.673550537109375,-287.9625244140625,1126.3125,57.01875305175781
1659027027264550700,1.683550537109375,-288.0375061035156,1126.21875,56.962501525878906
1659027027274550500,1.693550537109375,-287.98126220703125,1126.40625,56.98125076293945
1659027027284550700,1.703550537109375,-288.0562744140625,1126.425048828125,56.868751525878906
1659027027294550500,1.713550537109375,-288.1500244140625,1126.2750244140625,57.01875305175781
1659027027304550700,1.723550537109375,-288.0562744140625,1126.1063232421875,57.056251525878906
1659027027314550500,1.733550537109375,-287.9250183105469,1126.1063232421875,56.98125076293945
1659027027324550700,1.743550537109375,-288.2062683105469,1125.75,57.11250305175781
1659027027334550500,1.753550537109375,-288.3187561035156,1125.675048828125,57.07500076293945
1659027027344550700,1.763550537109375,-288.35626220703125,1125.675048828125,56.98125076293945
1659027027354550500,1.773550537109375,-288.375,1125.5625,56.906253814697266
1659027027364550700,1.783550537109375,-288.4125061035156,1125.5438232421875,56.681251525878906
1659027027374550500,1.793550537109375,-288.4125061035156,1125.6375732421875,56.51250076293945
1659027027384550700,1.803550537109375,-288.6750183105469,1125.69384765625,56.56875228881836
1659027027394550500,1.813550537109375,-288.6750183105469,1125.581298828125,56.51250076293945
1659027027404550700,1.823550537109375,-288.5250244140625,1125.65625,56.38125228881836
1659027027414550500,1.833550537109375,-288.35626220703125,1125.84375,56.56875228881836
1659027027424550700,1.843550537109375,-288.26251220703125,1125.9188232421875,56.73750305175781
1659027027434550500,1.853550537109375,-288.2437744140625,1125.9000244140625,56.718753814697266
1659027027444550700,1.863550537109375,-288.26251220703125,1125.7125244140625,56.88750076293945
1659027027454550500,1.873550537109375,-288.1875,1125.69384765625,56.88750076293945
1659027027464550700,1.883550537109375,-287.98126220703125,1125.675048828125,56.812503814697266
1659027027474550500,1.893550537109375,-287.98126220703125,1125.768798828125,56.962501525878906
1659027027484550700,1.903550537109375,-287.8500061035156,1125.862548828125,57.01875305175781
1659027027494550500,1.913550537109375,-287.7562561035156,1125.69384765625,56.92500305175781
1659027027504550700,1.923550537109375,-287.6625061035156,1125.7313232421875,56.75625228881836
1659027027514550500,1.933550537109375,-287.79376220703125,1125.6375732421875,56.94375228881836
1659027027524550700,1.943550537109375,-287.8312683105469,1125.75,56.962501525878906
1659027027534550500,1.953550537109375,-287.8500061035156,1125.7313232421875,57.07500076293945
1659027027544550700,1.963550537109375,-287.6625061035156,1125.8250732421875,57.07500076293945
1659027027554550500,1.973550537109375,-287.7375183105469,1125.9000244140625,57.000003814697266
1659027027564550700,1.983550537109375,-287.9625244140625,1125.9000244140625,57.13125228881836
1659027027574550500,1.993550537109375,-288,1125.956298828125,57.13125228881836
1659027027584550700,2.003550537109375,-288.1125183105469,1125.9188232421875,57.35625076293945
1659027027594550500,2.013550537109375,-288,1125.956298828125,57.16875076293945
1659027027604550700,2.023550537109375,-287.9625244140625,1125.9375,57.187503814697266
1659027027614550500,2.033550537109375,-288.26251220703125,1125.8062744140625,57.26250076293945
1659027027624550700,2.043550537109375,-288.28125,1125.88134765625,57.468753814697266
1659027027634550500,2.053550537109375,-288.3187561035156,1125.9375,57.562503814697266
1659027027644550700,2.063550537109375,-288.2437744140625,1125.862548828125,57.50625228881836
1659027027654550500,2.073550537109375,-288.2250061035156,1125.8250732421875,57.39375305175781
1659027027664550700,2.083550537109375,-288.2437744140625,1125.88134765625,57.431251525878906
1659027027674550500,2.093550537109375,-288.3375244140625,1126.06884765625,57.431251525878906
1659027027684550700,2.103550537109375,-288.3375244140625,1125.97509765625,57.39375305175781
1659027027694550500,2.113550537109375,-288.1125183105469,1126.16259765625,57.20625305175781
1659027027704550700,2.123550537109375,-288.3375244140625,1125.9188232421875,57.093753814697266
1659027027714550500,2.133550537109375,-288.28125,1125.7313232421875,56.88750076293945
1659027027724550700,2.143550537109375,-288.35626220703125,1125.7125244140625,56.83125305175781
1659027027734550500,2.153550537109375,-288.63751220703125,1125.581298828125,56.83125305175781
1659027027744550700,2.163550537109375,-288.6750183105469,1125.5438232421875,56.64375305175781
1659027027754550500,2.173550537109375,-288.6187744140625,1125.4500732421875,56.70000076293945
1659027027764550700,2.183550537109375,-288.5812683105469,1125.4500732421875,56.775001525878906
1659027027774550500,2.193550537109375,-288.6937561035156,1125.5625,56.79375076293945
1659027027784550700,2.203550537109375,-288.63751220703125,1125.88134765625,56.812503814697266
1659027027794550500,2.213550537109375,-288.5625,1125.8250732421875,56.79375076293945
1659027027804550700,2.223550537109375,-288.5062561035156,1125.8250732421875,56.88750076293945
1659027027814550500,2.233550537109375,-288.35626220703125,1125.862548828125,56.98125076293945
1659027027824550700,2.243550537109375,-288.1875,1125.75,56.98125076293945
1659027027834550500,2.253550537109375,-288.3000183105469,1126.125,57.01875305175781
1659027027844550700,2.263550537109375,-288.5062561035156,1126.1063232421875,57.056251525878906
1659027027854550500,2.273550537109375,-288.375,1125.88134765625,57.13125228881836
1659027027864550700,2.283550537109375,-288.3937683105469,1125.768798828125,56.92500305175781
1659027027874550500,2.293550537109375,-288.26251220703125,1125.8062744140625,57.01875305175781
1659027027884550700,2.303550537109375,-288.2062683105469,1125.88134765625,57.093753814697266
1659027027894550500,2.313550537109375,-288.2250061035156,1125.9937744140625,57.01875305175781
1659027027904550700,2.323550537109375,-288.3375244140625,1126.237548828125,57.000003814697266
1659027027914550500,2.333550537109375,-288.1875,1125.97509765625,57.01875305175781
1659027027924550700,2.343550537109375,-288.0375061035156,1126.125,56.94375228881836
1659027027934550500,2.353550537109375,-288.0562744140625,1126.06884765625,56.868751525878906
1659027027944550700,2.363550537109375,-288.2437744140625,1126.0875244140625,56.98125076293945
1659027027954550500,2.373550537109375,-288.35626220703125,1126.16259765625,57.000003814697266
1659027027964550700,2.383550537109375,-288.3937683105469,1126.1063232421875,56.812503814697266
1659027027974550500,2.393550537109375,-288.5250244140625,1126.06884765625,56.92500305175781
1659027027984550700,2.403550537109375,-288.375,1125.9000244140625,56.775001525878906
1659027027994550500,2.413550537109375,-288.4125061035156,1125.862548828125,56.681251525878906
1659027028004550700,2.423550537109375,-288.4125061035156,1125.862548828125,56.64375305175781
1659027028014550500,2.433550537109375,-288.3937683105469,1125.78759765625,56.681251525878906
1659027028024550700,2.443550537109375,-288.07501220703125,1125.84375,56.64375305175781
1659027028034550500,2.453550537109375,-288.09375,1125.7313232421875,56.437503814697266
1659027028044550700,2.463550537109375,-288.07501220703125,1125.862548828125,56.51250076293945
1659027028054550500,2.473550537109375,-287.9437561035156,1125.97509765625,56.45625305175781
1659027028064550700,2.483550537109375,-288.07501220703125,1125.9188232421875,56.56875228881836
1659027028074550500,2.493550537109375,-288.1312561035156,1125.956298828125,56.437503814697266
1659027028084550700,2.503550537109375,-288.2250061035156,1125.88134765625,56.306251525878906
1659027028094550500,2.513550537109375,-288.28125,1125.9937744140625,56.41875076293945
1659027028104550700,2.523550537109375,-288.5062561035156,1125.9188232421875,56.45625305175781
1659027028114550500,2.533550537109375,-288.6000061035156,1126.06884765625,56.587501525878906
1659027028124550700,2.543550537109375,-288.5812683105469,1125.9000244140625,56.38125228881836
1659027028134550500,2.553550537109375,-288.5250244140625,1125.862548828125,56.493751525878906
1659027028144550700,2.563550537109375,-288.5625,1125.88134765625,56.437503814697266
1659027028154550500,2.573550537109375,-288.5062561035156,1125.88134765625,56.75625228881836
1659027028164550700,2.583550537109375,-288.4875183105469,1126.25634765625,56.868751525878906
1659027028174550500,2.593550537109375,-288.4125061035156,1126.4813232421875,56.868751525878906
1659027028184550700,2.603550537109375,-288.2062683105469,1126.3687744140625,56.94375228881836
1659027028194550500,2.613550537109375,-288.07501220703125,1126.3875732421875,56.92500305175781
1659027028204550700,2.623550537109375,-287.9625244140625,1126.4625244140625,57.093753814697266
1659027028214550500,2.633550537109375,-287.9250183105469,1126.518798828125,56.88750076293945
1659027028224550700,2.643550537109375,-287.71875,1126.612548828125,57.000003814697266
1659027028234550500,2.653550537109375,-287.6437683105469,1126.5,56.73750305175781
1659027028244550700,2.663550537109375,-287.70001220703125,1126.2938232421875,56.85000228881836
1659027028254550500,2.673550537109375,-287.70001220703125,1126.16259765625,56.70000076293945
1659027028264550700,2.683550537109375,-288.1312561035156,1126.1812744140625,56.681251525878906
1659027028274550500,2.693550537109375,-288.2437744140625,1125.9937744140625,56.962501525878906
1659027028284550700,2.703550537109375,-288.4125061035156,1126.050048828125,56.98125076293945
1659027028294550500,2.713550537109375,-288.46875,1125.97509765625,57.01875305175781
1659027028304550700,2.723550537109375,-288.46875,1125.97509765625,57.13125228881836
1659027028314550500,2.733550537109375,-288.3937683105469,1125.862548828125,57.187503814697266
1659027028324550700,2.743550537109375,-288.375,1125.7125244140625,57.11250305175781
1659027028334550500,2.753550537109375,-288.6000061035156,1125.7125244140625,57.16875076293945
1659027028344550700,2.763550537109375,-288.46875,1125.768798828125,57.16875076293945
1659027028354550500,2.773550537109375,-288.2437744140625,1125.7125244140625,56.906253814697266
1659027028364550700,2.783550537109375,-288.09375,1125.7125244140625,57.056251525878906
1659027028374550500,2.793550537109375,-288.09375,1125.7313232421875,57.093753814697266
1659027028384550700,2.803550537109375,-288.2250061035156,1125.5250244140625,56.88750076293945
1659027028394550500,2.813550537109375,-288.3187561035156,1125.6187744140625,57.11250305175781
1659027028404550700,2.823550537109375,-288.28125,1125.6187744140625,57.16875076293945
1659027028414550500,2.833550537109375,-287.98126220703125,1125.4500732421875,57.375003814697266
1659027028424550700,2.843550537109375,-287.98126220703125,1125.487548828125,57.31875228881836
1659027028434550500,2.853550537109375,-288.2437744140625,1125.6375732421875,57.45000076293945
1659027028444550700,2.863550537109375,-288.54376220703125,1125.60009765625,57.39375305175781
1659027028454550500,2.873550537109375,-288.46875,1125.46875,57.45000076293945
1659027028464550700,2.883550537109375,-288.6000061035156,1125.7313232421875,57.48750305175781
1659027028474550500,2.893550537109375,-288.54376220703125,1125.7313232421875,57.31875228881836
1659027028484550700,2.903550537109375,-288.5812683105469,1125.7313232421875,57.22500228881836
1659027028494550500,2.913550537109375,-288.6187744140625,1125.7125244140625,56.868751525878906
1659027028504550700,2.923550537109375,-288.6937561035156,1125.675048828125,56.868751525878906
1659027028514550500,2.933550537109375,-288.5250244140625,1125.75,56.79375076293945
1659027028524550700,2.943550537109375,-288.26251220703125,1125.65625,56.70000076293945
1659027028534550500,2.953550537109375,-288.46875,1125.768798828125,56.681251525878906
1659027028544550700,2.963550537109375,-288.375,1125.6187744140625,56.75625228881836
1659027028554550500,2.973550537109375,-288.4312744140625,1125.7313232421875,56.92500305175781
1659027028564550700,2.983550537109375,-288.2250061035156,1125.675048828125,56.868751525878906
1659027028574550500,2.993550537109375,-288.375,1125.75,57.093753814697266
1659027028584550700,3.003550537109375,-288.1500244140625,1125.69384765625,57.337501525878906
1659027028594550500,3.013550537109375,-288.0375061035156,1125.88134765625,57.337501525878906
1659027028604550700,3.023550537109375,-288.07501220703125,1125.9937744140625,57.468753814697266
1659027028614550500,3.033550537109375,-287.8312683105469,1126.0125732421875,57.63750076293945
1659027028624550700,3.043550537109375,-287.6812744140625,1126.050048828125,57.50625228881836
1659027028634550500,3.053550537109375,-287.625,1126.21875,57.39375305175781
1659027028644550700,3.063550537109375,-287.60626220703125,1126.425048828125,57.50625228881836
1659027028654550500,3.073550537109375,-287.4000244140625,1126.518798828125,57.525001525878906
1659027028664550700,3.083550537109375,-287.34375,1126.53759765625,57.41250228881836
1659027028674550500,3.093550537109375,-287.4562683105469,1126.3875732421875,57.39375305175781
1659027028684550700,3.103550537109375,-287.4750061035156,1126.425048828125,57.375003814697266
1659027028694550500,3.113550537109375,-287.6625061035156,1126.4625244140625,57.31875228881836
1659027028704550700,3.123550537109375,-287.7562561035156,1126.425048828125,57.48750305175781
1659027028714550500,3.133550537109375,-287.9437561035156,1126.25634765625,57.58125305175781
1659027028724550700,3.143550537109375,-288.0187683105469,1126.331298828125,57.525001525878906
1659027028734550500,3.153550537109375,-288.3937683105469,1126.25634765625,57.54375076293945
1659027028744550700,3.163550537109375,-288.3375244140625,1126.2000732421875,57.41250228881836
1659027028754550500,3.173550537109375,-288.5250244140625,1126.06884765625,57.337501525878906
1659027028764550700,3.183550537109375,-288.5812683105469,1126.0125732421875,57.35625076293945
1659027028774550500,3.193550537109375,-288.5625,1125.88134765625,57.20625305175781
1659027028784550700,3.203550537109375,-288.3375244140625,1126.03125,57.16875076293945
1659027028794550500,3.213550537109375,-288.28125,1125.7125244140625,57.01875305175781
1659027028804550700,3.223550537109375,-288.3375244140625,1125.41259765625,57.01875305175781
1659027028814550500,3.233550537109375,-288.2437744140625,1125.41259765625,56.94375228881836
1659027028824550700,3.243550537109375,-288.2250061035156,1125.487548828125,56.83125305175781
1659027028834550500,3.253550537109375,-288.07501220703125,1125.65625,56.98125076293945
1659027028844550700,3.263550537109375,-288.1500244140625,1125.65625,56.98125076293945
1659027028854550500,3.273550537109375,-288.1312561035156,1125.5625,57.000003814697266
1659027028864550700,3.283550537109375,-288.3375244140625,1125.2625732421875,56.98125076293945
1659027028874550500,3.293550537109375,-288.3000183105469,1125.41259765625,57.056251525878906
1659027028884550700,3.303550537109375,-288.3000183105469,1125.78759765625,57.26250076293945
1659027028894550500,3.313550537109375,-288.1125183105469,1125.88134765625,57.39375305175781
1659027028904550700,3.323550537109375,-288.1875,1126.0125732421875,57.618751525878906
1659027028914550500,3.333550537109375,-287.88751220703125,1126.0125732421875,57.48750305175781
1659027028924550700,3.343550537109375,-288.0187683105469,1125.78759765625,57.618751525878906
1659027028934550500,3.353550537109375,-288.1500244140625,1125.9000244140625,57.50625228881836
1659027028944550700,3.363550537109375,-288.1500244140625,1126.0125732421875,57.54375076293945
1659027028954550500,3.373550537109375,-288.09375,1125.9375,57.50625228881836
1659027028964550700,3.383550537109375,-287.9437561035156,1125.8250732421875,57.39375305175781
1659027028974550500,3.393550537109375,-288.07501220703125,1125.8250732421875,57.187503814697266
1659027028984550700,3.403550537109375,-288.0187683105469,1125.60009765625,57.16875076293945
1659027028994550500,3.413550537109375,-288.2250061035156,1125.50634765625,57.20625305175781
1659027029004550700,3.423550537109375,-287.90625,1125.78759765625,57.16875076293945
1659027029014550500,3.433550537109375,-287.9437561035156,1125.7125244140625,57.281253814697266
1659027029024550700,3.443550537109375,-287.9437561035156,1125.6187744140625,57.187503814697266
1659027029034550500,3.453550537109375,-287.98126220703125,1125.69384765625,57.150001525878906
1659027029044550700,3.463550537109375,-288.1500244140625,1125.581298828125,57.07500076293945
1659027029054550500,3.473550537109375,-288.0562744140625,1125.581298828125,57.16875076293945
1659027029064550700,3.483550537109375,-288.1312561035156,1125.50634765625,57.20625305175781
1659027029074550500,3.493550537109375,-288.4875183105469,1125.31884765625,57.150001525878906
1659027029084550700,3.503550537109375,-288.73126220703125,1125.28125,57.16875076293945
1659027029094550500,3.513550537109375,-288.7125244140625,1125.46875,57.30000305175781
1659027029104550700,3.523550537109375,-288.7687683105469,1125.46875,57.337501525878906
1659027029114550500,3.533550537109375,-288.7125244140625,1125.46875,57.281253814697266
1659027029124550700,3.543550537109375,-288.84375,1125.3563232421875,57.30000305175781
1659027029134550500,3.553550537109375,-289.0875244140625,1125.375,57.22500228881836
1659027029144550700,3.563550537109375,-288.9000244140625,1125.41259765625,56.906253814697266
1659027029154550500,3.573550537109375,-288.54376220703125,1125.5625,57.03750228881836
1659027029164550700,3.583550537109375,-288.375,1125.4312744140625,56.906253814697266
1659027029174550500,3.593550537109375,-288.0375061035156,1125.28125,56.85000228881836
1659027029184550700,3.603550537109375,-287.8312683105469,1125.4500732421875,56.98125076293945
1659027029194550500,3.613550537109375,-287.8500061035156,1125.5250244140625,56.98125076293945
1659027029204550700,3.623550537109375,-287.90625,1125.6187744140625,56.94375228881836
1659027029214550500,3.633550537109375,-287.5500183105469,1125.6187744140625,56.812503814697266
1659027029224550700,3.643550537109375,-287.6437683105469,1125.84375,57.093753814697266
1659027029234550500,3.653550537109375,-287.4375,1125.9188232421875,57.20625305175781
1659027029244550700,3.663550537109375,-287.6437683105469,1125.9000244140625,57.093753814697266
1659027029254550500,3.673550537109375,-287.8312683105469,1125.862548828125,56.98125076293945
1659027029264550700,3.683550537109375,-288.09375,1125.84375,56.75625228881836
1659027029274550500,3.693550537109375,-288.1312561035156,1125.69384765625,56.906253814697266
1659027029284550700,3.703550537109375,-287.88751220703125,1125.75,56.868751525878906
1659027029294550500,3.713550537109375,-287.9437561035156,1125.7313232421875,57.056251525878906
1659027029304550700,3.723550537109375,-287.8687744140625,1125.5625,57.11250305175781
1659027029314550500,3.733550537109375,-288.1875,1125.5625,56.94375228881836
1659027029324550700,3.743550537109375,-287.98126220703125,1125.5625,57.07500076293945
1659027029334550500,3.753550537109375,-288,1125.65625,57.093753814697266
1659027029344550700,3.763550537109375,-287.8687744140625,1125.7125244140625,57.20625305175781
1659027029354550500,3.773550537109375,-287.8312683105469,1125.768798828125,56.962501525878906
1659027029364550700,3.783550537109375,-287.7750244140625,1125.9937744140625,57.11250305175781
1659027029374550500,3.793550537109375,-287.7562561035156,1125.97509765625,57.16875076293945
1659027029384550700,3.803550537109375,-287.98126220703125,1126.050048828125,57.07500076293945
1659027029394550500,3.813550537109375,-287.9437561035156,1125.956298828125,56.94375228881836
1659027029404550700,3.823550537109375,-287.90625,1125.9000244140625,56.94375228881836
1659027029414550500,3.833550537109375,-287.8687744140625,1126.06884765625,56.92500305175781
1659027029424550700,3.843550537109375,-288.0187683105469,1126.0125732421875,56.75625228881836
1659027029434550500,3.853550537109375,-288.0562744140625,1126.06884765625,57.000003814697266
1659027029444550700,3.863550537109375,-288.0375061035156,1125.862548828125,56.906253814697266
1659027029454550500,3.873550537109375,-288,1125.8062744140625,57.01875305175781
1659027029464550700,3.883550537109375,-288.2437744140625,1125.88134765625,57.13125228881836
1659027029474550500,3.893550537109375,-288.3937683105469,1125.9375,57.45000076293945
1659027029484550700,3.903550537109375,-288.4125061035156,1126.03125,57.337501525878906
1659027029494550500,3.913550537109375,-288.3937683105469,1125.9188232421875,57.30000305175781
1659027029504550700,3.923550537109375,-288.3375244140625,1125.9188232421875,57.243751525878906
1659027029514550500,3.933550537109375,-288.26251220703125,1126.0125732421875,57.000003814697266
1659027029524550700,3.943550537109375,-288.3187561035156,1126.06884765625,56.94375228881836
1659027029534550500,3.953550537109375,-288.4875183105469,1126.16259765625,56.70000076293945
1659027029544550700,3.963550537109375,-288.1875,1126.1063232421875,56.45625305175781
1659027029554550500,3.973550537109375,-288.1125183105469,1125.9375,56.118751525878906
1659027029564550700,3.983550537109375,-288.1500244140625,1125.8062744140625,56.062503814697266
1659027029574550500,3.993550537109375,-288.1875,1125.768798828125,56.212501525878906
1659027029584550700,4.003550537109375,-288.0375061035156,1125.65625,56.32500076293945
1659027029594550500,4.013550537109375,-288.07501220703125,1125.5250244140625,56.36250305175781
1659027029604550700,4.023550537109375,-288.26251220703125,1125.487548828125,56.41875076293945
1659027029614550500,4.033550537109375,-288.16876220703125,1125.5250244140625,56.55000305175781
1659027029624550700,4.043550537109375,-288.3375244140625,1125.4312744140625,56.36250305175781
1659027029634550500,4.053550537109375,-288.1875,1125.69384765625,56.55000305175781
1659027029644550700,4.063550537109375,-288.16876220703125,1125.88134765625,56.75625228881836
1659027029654550500,4.073550537109375,-288.3187561035156,1125.84375,56.66250228881836
1659027029664550700,4.083550537109375,-288.5250244140625,1125.8062744140625,56.75625228881836
1659027029674550500,4.093550537109375,-288.75,1126.125,56.94375228881836
1659027029684550700,4.103550537109375,-288.5812683105469,1126.03125,56.88750076293945
1659027029694550500,4.113550537109375,-288.6937561035156,1125.88134765625,56.79375076293945
1659027029704550700,4.123550537109375,-288.5250244140625,1126.03125,57.20625305175781
1659027029714550500,4.133550537109375,-288.63751220703125,1125.7125244140625,57.187503814697266
1659027029724550700,4.143550537109375,-288.6000061035156,1125.7125244140625,57.187503814697266
1659027029734550500,4.153550537109375,-288.4875183105469,1125.7313232421875,57.11250305175781
1659027029744550700,4.163550537109375,-288.5250244140625,1126.0875244140625,57.093753814697266
1659027029754550500,4.173550537109375,-288.375,1126.06884765625,57.13125228881836
1659027029764550700,4.183550537109375,-288.3937683105469,1126.2000732421875,57.30000305175781
1659027029774550500,4.193550537109375,-288.28125,1126.25634765625,57.16875076293945
1659027029784550700,4.203550537109375,-288.45001220703125,1126.1812744140625,56.92500305175781
1659027029794550500,4.213550537109375,-288.4875183105469,1126.35009765625,56.962501525878906
1659027029804550700,4.223550537109375,-288.46875,1126.2750244140625,56.83125305175781
1659027029814550500,4.233550537109375,-288.26251220703125,1126.21875,56.94375228881836
1659027029824550700,4.243550537109375,-288.09375,1126.03125,56.962501525878906
1659027029834550500,4.253550537109375,-288.0375061035156,1125.9375,56.962501525878906
1659027029844550700,4.263550537109375,-288.1875,1125.862548828125,56.88750076293945
1659027029854550500,4.273550537109375,-288.2250061035156,1125.9188232421875,57.187503814697266
1659027029864550700,4.283550537109375,-288.26251220703125,1125.69384765625,57.26250076293945
1659027029874550500,4.293550537109375,-288.28125,1125.581298828125,57.20625305175781
1659027029884550700,4.303550537109375,-288.3937683105469,1125.8250732421875,57.243751525878906
1659027029894550500,4.313550537109375,-288.7125244140625,1125.768798828125,57.30000305175781
1659027029904550700,4.323550537109375,-288.5625,1125.97509765625,57.26250076293945
1659027029914550500,4.333550537109375,-288.4312744140625,1125.675048828125,57.16875076293945
1659027029924550700,4.343550537109375,-288.1875,1125.69384765625,57.11250305175781
1659027029934550500,4.353550537109375,-288.3000183105469,1125.5250244140625,57.03750228881836
1659027029944550700,4.363550537109375,-288.0375061035156,1125.675048828125,57.187503814697266
1659027029954550500,4.373550537109375,-287.98126220703125,1125.862548828125,57.13125228881836
1659027029964550700,4.383550537109375,-288.0187683105469,1125.65625,57.150001525878906
1659027029974550500,4.393550537109375,-287.6625061035156,1125.69384765625,57.000003814697266
1659027029984550700,4.403550537109375,-287.9625244140625,1125.487548828125,56.88750076293945
1659027029994550500,4.413550537109375,-288.3375244140625,1125.5625,56.88750076293945
1659027030004550700,4.423550537109375,-288.4312744140625,1125.5250244140625,56.70000076293945
1659027030014550500,4.433550537109375,-288.3375244140625,1125.69384765625,56.681251525878906
1659027030024550700,4.443550537109375,-288.4125061035156,1125.8250732421875,56.70000076293945
1659027030034550500,4.453550537109375,-288.2250061035156,1125.60009765625,56.70000076293945
1659027030044550700,4.463550537109375,-288.2062683105469,1125.69384765625,56.56875228881836
1659027030054550500,4.473550537109375,-288.3937683105469,1125.75,56.73750305175781
1659027030064550700,4.483550537109375,-288.375,1125.6187744140625,56.83125305175781
1659027030074550500,4.493550537109375,-288.0187683105469,1125.7125244140625,56.775001525878906
1659027030084550700,4.503550537109375,-288.1312561035156,1125.8250732421875,56.98125076293945
1659027030094550500,4.513550537109375,-288.16876220703125,1125.8062744140625,56.906253814697266
1659027030104550700,4.523550537109375,-288.35626220703125,1125.8062744140625,56.73750305175781
1659027030114550500,4.533550537109375,-288.46875,1126.0125732421875,56.718753814697266
1659027030124550700,4.543550537109375,-288.375,1125.97509765625,56.718753814697266
1659027030134550500,4.553550537109375,-288.5062561035156,1125.84375,56.56875228881836
1659027030144550700,4.563550537109375,-288.54376220703125,1126.06884765625,56.66250228881836
1659027030154550500,4.573550537109375,-288.63751220703125,1126.0125732421875,56.66250228881836
1659027030164550700,4.583550537109375,-288.375,1125.8062744140625,56.73750305175781
1659027030174550500,4.593550537109375,-288.4875183105469,1125.8250732421875,56.75625228881836
1659027030184550700,4.603550537109375,-288.46875,1125.675048828125,56.75625228881836
1659027030194550500,4.613550537109375,-288.6000061035156,1125.7125244140625,56.75625228881836
1659027030204550700,4.623550537109375,-288.73126220703125,1125.78759765625,57.056251525878906
1659027030214550500,4.633550537109375,-288.65625,1125.768798828125,57.20625305175781
1659027030224550700,4.643550537109375,-288.8812561035156,1125.6375732421875,57.056251525878906
1659027030234550500,4.653550537109375,-288.7687683105469,1125.768798828125,57.03750228881836
1659027030244550700,4.663550537109375,-289.03125,1125.7125244140625,56.98125076293945
1659027030254550500,4.673550537109375,-288.73126220703125,1125.6187744140625,56.98125076293945
1659027030264550700,4.683550537109375,-288.7125244140625,1125.5438232421875,57.13125228881836
1659027030274550500,4.693550537109375,-288.5812683105469,1125.50634765625,57.16875076293945
1659027030284550700,4.703550537109375,-288.5250244140625,1125.3563232421875,57.093753814697266
1659027030294550500,4.713550537109375,-288.4875183105469,1125.393798828125,56.962501525878906
1659027030304550700,4.723550537109375,-288.1875,1125.581298828125,57.01875305175781
1659027030314550500,4.733550537109375,-288.3375244140625,1125.7313232421875,57.22500228881836
1659027030324550700,4.743550537109375,-288.07501220703125,1125.9000244140625,57.20625305175781
1659027030334550500,4.753550537109375,-288.0375061035156,1126.125,57.30000305175781
1659027030344550700,4.763550537109375,-288.1500244140625,1126.237548828125,57.375003814697266
1659027030354550500,4.773550537109375,-288.2437744140625,1126.331298828125,57.337501525878906
1659027030364550700,4.783550537109375,-288.1875,1126.425048828125,57.07500076293945
1659027030374550500,4.793550537109375,-288.28125,1126.5562744140625,57.07500076293945
1659027030384550700,4.803550537109375,-288.28125,1126.425048828125,57.243751525878906
1659027030394550500,4.813550537109375,-288.26251220703125,1126.125,57.056251525878906
1659027030404550700,4.823550537109375,-288.45001220703125,1126.06884765625,57.07500076293945
1659027030414550500,4.833550537109375,-288.6187744140625,1125.97509765625,56.962501525878906
1659027030424550700,4.843550537109375,-288.5812683105469,1126.06884765625,56.94375228881836
1659027030434550500,4.853550537109375,-288.5062561035156,1126.0875244140625,57.16875076293945
1659027030444550700,4.863550537109375,-288.5250244140625,1126.125,57.468753814697266
1659027030454550500,4.873550537109375,-288.4875183105469,1126.237548828125,57.525001525878906
1659027030464550700,4.883550537109375,-288.3937683105469,1126.1812744140625,57.41250228881836
1659027030474550500,4.893550537109375,-288.28125,1126.40625,57.562503814697266
1659027030484550700,4.903550537109375,-288.26251220703125,1126.53759765625,57.67500305175781
1659027030494550500,4.913550537109375,-288.2437744140625,1126.3875732421875,57.656253814697266
1659027030504550700,4.923550537109375,-287.9250183105469,1126.35009765625,57.41250228881836
1659027030514550500,4.933550537109375,-288.0562744140625,1126.1812744140625,57.07500076293945
1659027030524550700,4.943550537109375,-288.09375,1126.143798828125,56.962501525878906
1659027030534550500,4.953550537109375,-287.9625244140625,1126.1063232421875,57.056251525878906
1659027030544550700,4.963550537109375,-287.9625244140625,1126.331298828125,57.03750228881836
1659027030554550500,4.973550537109375,-288.09375,1126.125,56.906253814697266
1659027030564550700,4.983550537109375,-288.1125183105469,1126.050048828125,56.83125305175781
1659027030574550500,4.993550537109375,-288.1312561035156,1126.050048828125,56.92500305175781
1659027030584550700,5.003550537109375,-288.2250061035156,1126.1812744140625,57.07500076293945
1659027030594550500,5.013550537109375,-288.2062683105469,1126.35009765625,57.281253814697266
1659027030604550700,5.023550537109375,-288.3187561035156,1126.2938232421875,57.30000305175781
1659027030614550500,5.033550537109375,-288.6187744140625,1126.125,57.243751525878906
1659027030624550700,5.043550537109375,-288.73126220703125,1126.1063232421875,57.337501525878906
1659027030634550500,5.053550537109375,-288.4875183105469,1126.06884765625,57.431251525878906
1659027030644550700,5.063550537109375,-288.45001220703125,1126.0125732421875,57.431251525878906
1659027030654550500,5.073550537109375,-288.4125061035156,1126.125,57.39375305175781
1659027030664550700,5.083550537109375,-288.65625,1125.88134765625,57.20625305175781
1659027030674550500,5.093550537109375,-288.5062561035156,1125.8250732421875,57.20625305175781
1659027030684550700,5.103550537109375,-288.2437744140625,1125.78759765625,57.150001525878906
1659027030694550500,5.113550537109375,-288.0375061035156,1125.8062744140625,56.85000228881836
1659027030704550700,5.123550537109375,-287.9625244140625,1125.675048828125,56.73750305175781
1659027030714550500,5.133550537109375,-288.16876220703125,1125.8062744140625,56.775001525878906
1659027030724550700,5.143550537109375,-288.2250061035156,1125.9375,56.75625228881836
1659027030734550500,5.153550537109375,-288.375,1126.03125,56.98125076293945
1659027030744550700,5.163550537109375,-287.9625244140625,1126.06884765625,56.92500305175781
1659027030754550500,5.173550537109375,-288.0562744140625,1125.9188232421875,57.03750228881836
1659027030764550700,5.183550537109375,-288.26251220703125,1125.88134765625,57.11250305175781
1659027030774550500,5.193550537109375,-288.1875,1125.956298828125,57.41250228881836
1659027030784550700,5.203550537109375,-288.4312744140625,1126.06884765625,57.375003814697266
1659027030794550500,5.213550537109375,-288.4312744140625,1126.06884765625,57.11250305175781
1659027030804550700,5.223550537109375,-288.3187561035156,1125.768798828125,57.07500076293945
1659027030814550500,5.233550537109375,-288.28125,1125.78759765625,56.868751525878906
1659027030824550700,5.243550537109375,-288.45001220703125,1125.75,56.92500305175781
1659027030834550500,5.253550537109375,-288.4312744140625,1125.84375,56.79375076293945
1659027030844550700,5.263550537109375,-288.2062683105469,1125.8250732421875,56.718753814697266
1659027030854550500,5.273550537109375,-288.1875,1125.7125244140625,56.587501525878906
1659027030864550700,5.283550537109375,-288.07501220703125,1125.5438232421875,56.66250228881836
1659027030874550500,5.293550537109375,-288.0187683105469,1125.5250244140625,56.85000228881836
1659027030884550700,5.303550537109375,-288.2250061035156,1125.862548828125,56.79375076293945
1659027030894550500,5.313550537109375,-288.0375061035156,1125.75,56.73750305175781
1659027030904550700,5.323550537109375,-288.1875,1125.9937744140625,56.775001525878906
1659027030914550500,5.333550537109375,-288.1125183105469,1126.1063232421875,56.83125305175781
1659027030924550700,5.343550537109375,-288.2250061035156,1126.3125,56.906253814697266
1659027030934550500,5.353550537109375,-288.3937683105469,1126.4813232421875,56.94375228881836
1659027030944550700,5.363550537109375,-288.35626220703125,1126.5562744140625,57.000003814697266
1659027030954550500,5.373550537109375,-288.7125244140625,1126.4625244140625,56.962501525878906
1659027030964550700,5.383550537109375,-288.375,1126.1812744140625,56.962501525878906
1659027030974550500,5.393550537109375,-288.5250244140625,1126.1812744140625,57.01875305175781
1659027030984550700,5.403550537109375,-288.28125,1126.050048828125,57.11250305175781
1659027030994550500,5.413550537109375,-288.3937683105469,1125.88134765625,57.000003814697266
1659027031004550700,5.423550537109375,-288.46875,1125.862548828125,56.868751525878906
1659027031014550500,5.433550537109375,-288.6000061035156,1125.65625,56.98125076293945
1659027031024550700,5.443550537109375,-288.35626220703125,1125.5250244140625,56.83125305175781
1659027031034550500,5.453550537109375,-288.07501220703125,1125.5625,57.056251525878906
1659027031044550700,5.463550537109375,-288.2437744140625,1125.675048828125,56.94375228881836
1659027031054550500,5.473550537109375,-288.16876220703125,1125.50634765625,56.88750076293945
1659027031064550700,5.483550537109375,-288.46875,1125.5250244140625,56.906253814697266
1659027031074550500,5.493550537109375,-288.3000183105469,1125.5438232421875,56.94375228881836
1659027031084550700,5.503550537109375,-288.16876220703125,1125.5250244140625,56.868751525878906
1659027031094550500,5.513550537109375,-287.8687744140625,1125.6187744140625,56.92500305175781
1659027031104550700,5.523550537109375,-287.88751220703125,1125.675048828125,57.000003814697266
1659027031114550500,5.533550537109375,-287.8687744140625,1125.5250244140625,56.88750076293945
1659027031124550700,5.543550537109375,-287.8687744140625,1125.5250244140625,56.94375228881836
1659027031134550500,5.553550537109375,-287.98126220703125,1125.768798828125,57.01875305175781
1659027031144550700,5.563550537109375,-287.9250183105469,1125.7313232421875,57.20625305175781
1659027031154550500,5.573550537109375,-287.88751220703125,1125.7313232421875,57.11250305175781
1659027031164550700,5.583550537109375,-287.8125,1125.65625,57.13125228881836
1659027031174550500,5.593550537109375,-288,1125.9375,57.03750228881836
1659027031184550700,5.603550537109375,-288.0187683105469,1126.050048828125,56.88750076293945
1659027031194550500,5.613550537109375,-287.8687744140625,1126.3125,56.94375228881836
1659027031204550700,5.623550537109375,-287.98126220703125,1126.4813232421875,57.20625305175781
1659027031214550500,5.633550537109375,-287.9437561035156,1126.331298828125,57.41250228881836
1659027031224550700,5.643550537109375,-287.79376220703125,1126.5562744140625,57.31875228881836
1659027031234550500,5.653550537109375,-287.9250183105469,1126.63134765625,57.48750305175781
1659027031244550700,5.663550537109375,-288.1312561035156,1126.7437744140625,57.63750076293945
1659027031254550500,5.673550537109375,-287.90625,1126.5,57.73125076293945
1659027031264550700,5.683550537109375,-288.07501220703125,1126.2750244140625,57.900001525878906
1659027031274550500,5.693550537109375,-288.1125183105469,1126.237548828125,57.76875305175781
1659027031284550700,5.703550537109375,-288.1312561035156,1126.050048828125,57.69375228881836
1659027031294550500,5.713550537109375,-287.98126220703125,1126.16259765625,57.562503814697266
1659027031304550700,5.723550537109375,-287.9625244140625,1126.06884765625,57.26250076293945
1659027031314550500,5.733550537109375,-287.9250183105469,1126.1063232421875,57.22500228881836
1659027031324550700,5.743550537109375,-287.5875244140625,1125.9937744140625,57.13125228881836
1659027031334550500,5.753550537109375,-287.6437683105469,1126.1063232421875,56.85000228881836
1659027031344550700,5.763550537109375,-287.41876220703125,1126.40625,57.056251525878906
1659027031354550500,5.773550537109375,-287.60626220703125,1126.5,56.94375228881836
1659027031364550700,5.783550537109375,-287.4937744140625,1126.425048828125,56.92500305175781
1659027031374550500,5.793550537109375,-287.5687561035156,1126.25634765625,56.70000076293945
1659027031384550700,5.803550537109375,-287.6812744140625,1126.1063232421875,56.906253814697266
1659027031394550500,5.813550537109375,-287.6625061035156,1126.2000732421875,56.906253814697266
1659027031404550700,5.823550537109375,-287.7750244140625,1126.2938232421875,56.98125076293945
1659027031414550500,5.833550537109375,-287.9625244140625,1126.050048828125,57.07500076293945
1659027031424550700,5.843550537109375,-288.2062683105469,1125.9375,56.812503814697266
1659027031434550500,5.853550537109375,-288.1125183105469,1125.75,57.07500076293945
1659027031444550700,5.863550537109375,-287.88751220703125,1125.8062744140625,57.11250305175781
1659027031454550500,5.873550537109375,-288.07501220703125,1125.78759765625,57.13125228881836
1659027031464550700,5.883550537109375,-287.90625,1125.60009765625,57.187503814697266
1659027031474550500,5.893550537109375,-287.8687744140625,1125.487548828125,57.16875076293945
1659027031484550700,5.903550537109375,-288.1875,1125.65625,57.01875305175781
1659027031494550500,5.913550537109375,-288.0375061035156,1125.69384765625,57.03750228881836
1659027031504550700,5.923550537109375,-288.0187683105469,1125.8062744140625,56.92500305175781
1659027031514550500,5.933550537109375,-288.0375061035156,1125.9188232421875,56.868751525878906
1659027031524550700,5.943550537109375,-288.2062683105469,1126.0875244140625,56.70000076293945
1659027031534550500,5.953550537109375,-287.9625244140625,1126.2750244140625,56.83125305175781
1659027031544550700,5.963550537109375,-288.1312561035156,1126.4625244140625,56.64375305175781
1659027031554550500,5.973550537109375,-288.3000183105469,1126.3875732421875,56.66250228881836
1659027031564550700,5.983550537109375,-288.3000183105469,1126.125,56.83125305175781
1659027031574550500,5.993550537109375,-288.6750183105469,1126.125,56.812503814697266
1659027031584550700,6.003550537109375,-288.82501220703125,1125.88134765625,56.962501525878906
1659027031594550500,6.013550537109375,-288.84375,1125.9188232421875,56.98125076293945
1659027031604550700,6.023550537109375,-288.9937744140625,1125.8250732421875,57.150001525878906
1659027031614550500,6.033550537109375,-288.9937744140625,1125.88134765625,57.243751525878906
1659027031624550700,6.043550537109375,-288.91876220703125,1125.8250732421875,57.16875076293945
1659027031634550500,6.053550537109375,-288.7687683105469,1125.88134765625,57.16875076293945
1659027031644550700,6.063550537109375,-288.5625,1125.9000244140625,57.150001525878906
1659027031654550500,6.073550537109375,-288.1875,1125.9188232421875,57.13125228881836
1659027031664550700,6.083550537109375,-288.0562744140625,1125.9188232421875,57.03750228881836
1659027031674550500,6.093550537109375,-288.0562744140625,1125.78759765625,57.03750228881836
1659027031684550700,6.103550537109375,-287.8500061035156,1125.675048828125,56.92500305175781
1659027031694550500,6.113550537109375,-287.7562561035156,1125.6187744140625,56.88750076293945
1659027031704550700,6.123550537109375,-287.6812744140625,1125.6187744140625,57.000003814697266
1659027031714550500,6.133550537109375,-287.8312683105469,1125.7125244140625,57.000003814697266
1659027031724550700,6.143550537109375,-287.8500061035156,1125.75,57.07500076293945
1659027031734550500,6.153550537109375,-287.7375183105469,1125.84375,57.16875076293945
1659027031744550700,6.163550537109375,-287.90625,1126.050048828125,57.16875076293945
1659027031754550500,6.173550537109375,-287.8687744140625,1126.125,57.22500228881836
1659027031764550700,6.183550537109375,-288.09375,1126.16259765625,57.41250228881836
1659027031774550500,6.193550537109375,-288.4312744140625,1126.1063232421875,57.26250076293945
1659027031784550700,6.203550537109375,-288.5250244140625,1126.2938232421875,57.35625076293945
1659027031794550500,6.213550537109375,-288.54376220703125,1126.40625,57.281253814697266
1659027031804550700,6.223550537109375,-288.54376220703125,1126.53759765625,57.13125228881836
1659027031814550500,6.233550537109375,-288.73126220703125,1126.53759765625,57.000003814697266
1659027031824550700,6.243550537109375,-288.63751220703125,1126.44384765625,57.07500076293945
1659027031834550500,6.253550537109375,-288.54376220703125,1126.3875732421875,57.07500076293945
1659027031844550700,6.263550537109375,-288.3375244140625,1126.5,56.812503814697266
1659027031854550500,6.273550537109375,-288.07501220703125,1126.3875732421875,56.92500305175781
1659027031864550700,6.283550537109375,-288.3000183105469,1126.331298828125,56.94375228881836
1659027031874550500,6.293550537109375,-288.0375061035156,1126.06884765625,56.98125076293945
1659027031884550700,6.303550537109375,-288.1312561035156,1125.8062744140625,56.962501525878906
1659027031894550500,6.313550537109375,-288.1125183105469,1125.88134765625,56.98125076293945
1659027031904550700,6.323550537109375,-288.07501220703125,1125.8250732421875,56.88750076293945
1659027031914550500,6.333550537109375,-288.1875,1125.9188232421875,56.56875228881836
1659027031924550700,6.343550537109375,-288.3375244140625,1125.75,56.64375305175781
1659027031934550500,6.353550537109375,-288.5625,1125.9375,56.79375076293945
1659027031944550700,6.363550537109375,-288.375,1125.9375,56.88750076293945
1659027031954550500,6.373550537109375,-288.63751220703125,1125.9375,56.775001525878906
1659027031964550700,6.383550537109375,-288.46875,1125.88134765625,57.07500076293945
1659027031974550500,6.393550537109375,-288.5250244140625,1125.84375,57.26250076293945
1659027031984550700,6.403550537109375,-288.4875183105469,1125.78759765625,57.16875076293945
1659027031994550500,6.413550537109375,-288.375,1125.69384765625,57.35625076293945
1659027032004550700,6.423550537109375,-288.3187561035156,1125.6187744140625,57.22500228881836
1659027032014550500,6.433550537109375,-288.28125,1125.4312744140625,56.98125076293945
1659027032024550700,6.443550537109375,-288.3187561035156,1125.28125,56.906253814697266
1659027032034550500,6.453550537109375,-288.1125183105469,1125.300048828125,57.150001525878906
1659027032044550700,6.463550537109375,-288.16876220703125,1125.46875,56.962501525878906
1659027032054550500,6.473550537109375,-288.09375,1125.3563232421875,56.88750076293945
1659027032064550700,6.483550537109375,-288,1125.393798828125,56.98125076293945
1659027032074550500,6.493550537109375,-288.07501220703125,1125.5625,57.000003814697266
1659027032084550700,6.503550537109375,-288.2062683105469,1125.8250732421875,57.093753814697266
1659027032094550500,6.513550537109375,-288.3187561035156,1126.03125,57.16875076293945
1659027032104550700,6.523550537109375,-288.1312561035156,1126.06884765625,57.13125228881836
1659027032114550500,6.533550537109375,-288.35626220703125,1126.125,57.000003814697266
1659027032124550700,6.543550537109375,-288.5062561035156,1126.06884765625,56.962501525878906
1659027032134550500,6.553550537109375,-288.4875183105469,1126.0125732421875,57.03750228881836
1659027032144550700,6.563550537109375,-288.4312744140625,1125.97509765625,57.20625305175781
1659027032154550500,6.573550537109375,-288.5812683105469,1125.88134765625,57.243751525878906
1659027032164550700,6.583550537109375,-288.4125061035156,1125.675048828125,57.35625076293945
1659027032174550500,6.593550537109375,-288.2062683105469,1125.4312744140625,57.20625305175781
1659027032184550700,6.603550537109375,-288.375,1125.6187744140625,57.16875076293945
1659027032194550500,6.613550537109375,-288.3375244140625,1125.78759765625,57.16875076293945
1659027032204550700,6.623550537109375,-288.0562744140625,1125.9375,57.31875228881836
1659027032214550500,6.633550537109375,-288.0375061035156,1125.9937744140625,57.243751525878906
1659027032224550700,6.643550537109375,-288.2250061035156,1125.9937744140625,57.01875305175781
1659027032234550500,6.653550537109375,-288.2250061035156,1126.125,57.056251525878906
1659027032244550700,6.663550537109375,-288.3000183105469,1126.2000732421875,56.868751525878906
1659027032254550500,6.673550537109375,-288.28125,1126.16259765625,56.92500305175781
1659027032264550700,6.683550537109375,-288.1312561035156,1125.8062744140625,57.000003814697266
1659027032274550500,6.693550537109375,-288.1125183105469,1125.5625,56.906253814697266
1659027032284550700,6.703550537109375,-288.35626220703125,1125.31884765625,56.775001525878906
1659027032294550500,6.713550537109375,-288.26251220703125,1125.31884765625,56.868751525878906
1659027032304550700,6.723550537109375,-288.07501220703125,1125.22509765625,56.962501525878906
1659027032314550500,6.733550537109375,-288.16876220703125,1125.03759765625,56.775001525878906
1659027032324550700,6.743550537109375,-288.26251220703125,1125.1688232421875,57.01875305175781
1659027032334550500,6.753550537109375,-288.35626220703125,1125.5438232421875,56.92500305175781
1659027032344550700,6.763550537109375,-288.6750183105469,1125.75,56.88750076293945
1659027032354550500,6.773550537109375,-288.375,1125.581298828125,57.093753814697266
1659027032364550700,6.783550537109375,-288.35626220703125,1125.75,57.243751525878906
1659027032374550500,6.793550537109375,-288.375,1125.8250732421875,57.26250076293945
1659027032384550700,6.803550537109375,-288.375,1126.0125732421875,57.30000305175781
1659027032394550500,6.813550537109375,-288.09375,1125.97509765625,57.375003814697266
1659027032404550700,6.823550537109375,-288.0375061035156,1125.75,57.22500228881836
1659027032414550500,6.833550537109375,-287.98126220703125,1125.28125,57.54375076293945
1659027032424550700,6.843550537109375,-287.7562561035156,1125.41259765625,57.54375076293945
1659027032434550500,6.853550537109375,-287.98126220703125,1125.69384765625,57.35625076293945
1659027032444550700,6.863550537109375,-287.98126220703125,1125.50634765625,57.13125228881836
1659027032454550500,6.873550537109375,-288.2062683105469,1125.5250244140625,57.150001525878906
1659027032464550700,6.883550537109375,-288.35626220703125,1125.581298828125,57.22500228881836
1659027032474550500,6.893550537109375,-288.5250244140625,1125.46875,57.243751525878906
1659027032484550700,6.903550537109375,-288.4875183105469,1125.65625,57.281253814697266
1659027032494550500,6.913550537109375,-288.3375244140625,1125.9188232421875,57.26250076293945
1659027032504550700,6.923550537109375,-288.28125,1125.675048828125,57.243751525878906
1659027032514550500,6.933550537109375,-288.28125,1125.65625,57.30000305175781
1659027032524550700,6.943550537109375,-288.1500244140625,1125.7313232421875,57.39375305175781
1659027032534550500,6.953550537109375,-287.90625,1125.7125244140625,57.187503814697266
1659027032544550700,6.963550537109375,-287.8125,1125.8062744140625,57.000003814697266
1659027032554550500,6.973550537109375,-287.4750061035156,1125.8250732421875,56.962501525878906
1659027032564550700,6.983550537109375,-287.4750061035156,1126.0125732421875,56.906253814697266
1659027032574550500,6.993550537109375,-287.3625183105469,1125.768798828125,56.73750305175781
1659027032584550700,7.003550537109375,-287.53125,1125.78759765625,56.70000076293945
1659027032594550500,7.013550537109375,-287.6625061035156,1125.6375732421875,56.51250076293945
1659027032604550700,7.023550537109375,-287.70001220703125,1125.65625,56.56875228881836
1659027032614550500,7.033550537109375,-287.9437561035156,1125.5438232421875,56.681251525878906
1659027032624550700,7.043550537109375,-287.8312683105469,1125.46875,56.94375228881836
1659027032634550500,7.053550537109375,-287.90625,1125.581298828125,56.88750076293945
1659027032644550700,7.063550537109375,-287.9250183105469,1125.41259765625,56.812503814697266
1659027032654550500,7.073550537109375,-288.3000183105469,1125.581298828125,56.812503814697266
1659027032664550700,7.083550537109375,-288.3937683105469,1125.75,56.94375228881836
1659027032674550500,7.093550537109375,-288.4125061035156,1125.956298828125,57.187503814697266
1659027032684550700,7.103550537109375,-288.5062561035156,1125.8062744140625,57.000003814697266
1659027032694550500,7.113550537109375,-288.5062561035156,1125.9375,57.056251525878906
1659027032704550700,7.123550537109375,-288.9562683105469,1125.8250732421875,56.79375076293945
1659027032714550500,7.133550537109375,-289.0875244140625,1125.78759765625,56.92500305175781
1659027032724550700,7.143550537109375,-288.9375,1125.75,57.11250305175781
1659027032734550500,7.153550537109375,-288.73126220703125,1125.88134765625,57.20625305175781
1659027032744550700,7.163550537109375,-288.5250244140625,1125.7125244140625,57.20625305175781
1659027032754550500,7.173550537109375,-288.3937683105469,1125.675048828125,57.07500076293945
1659027032764550700,7.183550537109375,-288.26251220703125,1125.768798828125,57.16875076293945
1659027032774550500,7.193550537109375,-288.28125,1125.8250732421875,56.98125076293945
1659027032784550700,7.203550537109375,-287.9625244140625,1125.768798828125,57.000003814697266
1659027032794550500,7.213550537109375,-287.8687744140625,1125.9000244140625,57.056251525878906
1659027032804550700,7.223550537109375,-288.0562744140625,1125.9000244140625,56.962501525878906
1659027032814550500,7.233550537109375,-288.3000183105469,1125.7125244140625,56.85000228881836
1659027032824550700,7.243550537109375,-288.3187561035156,1125.78759765625,56.812503814697266
1659027032834550500,7.253550537109375,-288.375,1125.6187744140625,56.88750076293945
1659027032844550700,7.263550537109375,-288.5250244140625,1125.7313232421875,56.906253814697266
1659027032854550500,7.273550537109375,-288.5062561035156,1125.60009765625,57.07500076293945
1659027032864550700,7.283550537109375,-288.45001220703125,1125.6375732421875,57.16875076293945
1659027032874550500,7.293550537109375,-288.54376220703125,1125.6187744140625,57.056251525878906
1659027032884550700,7.303550537109375,-288.54376220703125,1125.4312744140625,57.056251525878906
1659027032894550500,7.313550537109375,-288.46875,1125.4312744140625,57.281253814697266
1659027032904550700,7.323550537109375,-288.4312744140625,1125.1500244140625,57.20625305175781
1659027032914550500,7.333550537109375,-288.45001220703125,1125.1500244140625,57.31875228881836
1659027032924550700,7.343550537109375,-288.3937683105469,1125,57.54375076293945
1659027032934550500,7.353550537109375,-288.4312744140625,1125.112548828125,57.618751525878906
1659027032944550700,7.363550537109375,-288.46875,1124.94384765625,57.73125076293945
1659027032954550500,7.373550537109375,-288.5250244140625,1124.9625244140625,57.78750228881836
1659027032964550700,7.383550537109375,-288.45001220703125,1125.1875,57.88125228881836
1659027032974550500,7.393550537109375,-288.46875,1125.4312744140625,57.88125228881836
1659027032984550700,7.403550537109375,-288.46875,1125.65625,58.01250076293945
1659027032994550500,7.413550537109375,-288.3375244140625,1125.9000244140625,57.95625305175781
1659027033004550700,7.423550537109375,-288.1500244140625,1125.8250732421875,57.78750228881836
1659027033014550500,7.433550537109375,-288.1500244140625,1125.78759765625,57.63750076293945
1659027033024550700,7.443550537109375,-288.3000183105469,1125.862548828125,57.618751525878906
1659027033034550500,7.453550537109375,-288.375,1125.97509765625,57.562503814697266
1659027033044550700,7.463550537109375,-288.375,1125.78759765625,57.618751525878906
1659027033054550500,7.473550537109375,-288.26251220703125,1125.6375732421875,57.562503814697266
1659027033064550700,7.483550537109375,-288.16876220703125,1125.581298828125,57.26250076293945
1659027033074550500,7.493550537109375,-288.3187561035156,1125.5625,57.26250076293945
1659027033084550700,7.503550537109375,-288.3937683105469,1125.60009765625,57.31875228881836
1659027033094550500,7.513550537109375,-288.3937683105469,1125.60009765625,57.35625076293945
1659027033104550700,7.523550537109375,-288.26251220703125,1125.7125244140625,57.281253814697266
1659027033114550500,7.533550537109375,-288.2250061035156,1125.41259765625,57.30000305175781
1659027033124550700,7.543550537109375,-288.28125,1125.581298828125,57.093753814697266
1659027033134550500,7.553550537109375,-288.2250061035156,1125.75,57.13125228881836
1659027033144550700,7.563550537109375,-288.35626220703125,1125.862548828125,57.375003814697266
1659027033154550500,7.573550537109375,-288.2437744140625,1125.6375732421875,57.22500228881836
1659027033164550700,7.583550537109375,-288.3937683105469,1125.9375,57.30000305175781
1659027033174550500,7.593550537109375,-288.3187561035156,1125.956298828125,57.31875228881836
1659027033184550700,7.603550537109375,-288.4312744140625,1125.7313232421875,57.26250076293945
1659027033194550500,7.613550537109375,-288.35626220703125,1125.97509765625,57.525001525878906
1659027033204550700,7.623550537109375,-288.3937683105469,1125.9375,57.69375228881836
1659027033214550500,7.633550537109375,-288.375,1125.7313232421875,57.58125305175781
1659027033224550700,7.643550537109375,-288.5250244140625,1125.768798828125,57.58125305175781
1659027033234550500,7.653550537109375,-288.65625,1125.97509765625,57.76875305175781
1659027033244550700,7.663550537109375,-288.5812683105469,1125.9000244140625,57.656253814697266
1659027033254550500,7.673550537109375,-288.3375244140625,1125.9188232421875,57.67500305175781
1659027033264550700,7.683550537109375,-288.07501220703125,1126.06884765625,57.73125076293945
1659027033274550500,7.693550537109375,-288.0375061035156,1126.16259765625,57.468753814697266
1659027033284550700,7.703550537109375,-287.9250183105469,1126.06884765625,57.30000305175781
1659027033294550500,7.713550537109375,-288.0375061035156,1125.9375,57.431251525878906
1659027033304550700,7.723550537109375,-288.09375,1125.84375,57.337501525878906
1659027033314550500,7.733550537109375,-287.9250183105469,1125.7125244140625,57.337501525878906
1659027033324550700,7.743550537109375,-287.6812744140625,1125.7313232421875,57.07500076293945
1659027033334550500,7.753550537109375,-287.90625,1125.50634765625,57.093753814697266
1659027033344550700,7.763550537109375,-287.9437561035156,1125.75,57.16875076293945
1659027033354550500,7.773550537109375,-288,1125.4500732421875,57.093753814697266
1659027033364550700,7.783550537109375,-287.79376220703125,1125.46875,57.150001525878906
1659027033374550500,7.793550537109375,-287.7750244140625,1125.5438232421875,56.92500305175781
1659027033384550700,7.803550537109375,-287.60626220703125,1125.4312744140625,57.07500076293945
1659027033394550500,7.813550537109375,-287.51251220703125,1125.6187744140625,57.03750228881836
1659027033404550700,7.823550537109375,-287.5687561035156,1125.5438232421875,57.13125228881836
1659027033414550500,7.833550537109375,-287.4375,1125.84375,57.000003814697266
1659027033424550700,7.843550537109375,-287.32501220703125,1125.6375732421875,57.01875305175781
1659027033434550500,7.853550537109375,-287.4562683105469,1125.69384765625,57.11250305175781
1659027033444550700,7.863550537109375,-287.6437683105469,1125.50634765625,57.11250305175781
1659027033454550500,7.873550537109375,-287.625,1125.6375732421875,57.150001525878906
1659027033464550700,7.883550537109375,-287.5500183105469,1125.8250732421875,57.30000305175781
1659027033474550500,7.893550537109375,-287.9625244140625,1125.7313232421875,57.35625076293945
1659027033484550700,7.903550537109375,-288.1875,1125.8062744140625,57.468753814697266
1659027033494550500,7.913550537109375,-288.09375,1125.6375732421875,57.54375076293945
1659027033504550700,7.923550537109375,-288.3000183105469,1125.6187744140625,57.468753814697266
1659027033514550500,7.933550537109375,-288.16876220703125,1125.768798828125,57.45000076293945
1659027033524550700,7.943550537109375,-288.1312561035156,1125.9375,57.375003814697266
1659027033534550500,7.953550537109375,-288.28125,1125.675048828125,57.54375076293945
1659027033544550700,7.963550537109375,-288.3937683105469,1125.69384765625,57.281253814697266
1659027033554550500,7.973550537109375,-288.2250061035156,1125.69384765625,57.187503814697266
1659027033564550700,7.983550537109375,-288.1875,1125.7125244140625,57.26250076293945
1659027033574550500,7.993550537109375,-288.35626220703125,1125.75,57.337501525878906
1659027033584550700,8.003550537109374,-288.4312744140625,1125.84375,57.187503814697266
1659027033594550500,8.013550537109374,-288.6750183105469,1125.69384765625,57.20625305175781
1659027033604550700,8.023550537109376,-288.8062744140625,1125.60009765625,57.54375076293945
1659027033614550500,8.033550537109376,-288.65625,1125.956298828125,57.431251525878906
1659027033624550700,8.043550537109375,-288.73126220703125,1125.78759765625,57.562503814697266
1659027033634550500,8.053550537109375,-288.6750183105469,1125.8062744140625,57.750003814697266
1659027033644550700,8.063550537109375,-288.73126220703125,1125.8062744140625,57.58125305175781
1659027033654550500,8.073550537109375,-288.7687683105469,1125.862548828125,57.67500305175781
1659027033664550700,8.083550537109375,-288.5625,1125.9375,57.91875076293945
1659027033674550500,8.093550537109374,-288.2250061035156,1126.050048828125,57.993751525878906
1659027033684550700,8.103550537109374,-288.26251220703125,1126.2750244140625,57.69375228881836
1659027033694550500,8.113550537109376,-288.1875,1126.2000732421875,57.712501525878906
1659027033704550700,8.123550537109375,-288,1126.237548828125,57.525001525878906
1659027033714550500,8.133550537109375,-287.90625,1125.956298828125,57.431251525878906
1659027033724550700,8.143550537109375,-287.88751220703125,1125.75,57.525001525878906
1659027033734550500,8.153550537109375,-288,1125.862548828125,57.41250228881836
1659027033744550700,8.163550537109375,-288.3000183105469,1125.9188232421875,57.431251525878906
1659027033754550500,8.173550537109374,-288.4125061035156,1125.9000244140625,57.31875228881836
1659027033764550700,8.183550537109374,-288.3937683105469,1125.88134765625,57.243751525878906
1659027033774550500,8.193550537109376,-288.54376220703125,1125.862548828125,57.30000305175781
1659027033784550700,8.203550537109376,-288.375,1125.956298828125,57.337501525878906
1659027033794550500,8.213550537109375,-288.375,1126.143798828125,57.22500228881836
1659027033804550700,8.223550537109375,-288.16876220703125,1126.1812744140625,57.093753814697266
1659027033814550500,8.233550537109375,-288.0375061035156,1125.8062744140625,57.03750228881836
1659027033824550700,8.243550537109375,-287.88751220703125,1125.768798828125,56.88750076293945
1659027033834550500,8.253550537109374,-288.0187683105469,1125.5438232421875,56.868751525878906
1659027033844550700,8.263550537109374,-287.8687744140625,1125.3375244140625,56.812503814697266
1659027033854550500,8.273550537109376,-287.90625,1125.28125,56.812503814697266
1659027033864550700,8.283550537109376,-288.2250061035156,1125.22509765625,56.775001525878906
1659027033874550500,8.293550537109375,-288.1500244140625,1125.1688232421875,56.775001525878906
1659027033884550700,8.303550537109375,-288.4125061035156,1125.375,56.98125076293945
1659027033894550500,8.313550537109375,-288.4312744140625,1125.65625,57.056251525878906
1659027033904550700,8.323550537109375,-288.5625,1125.375,57.187503814697266
1659027033914550500,8.333550537109375,-288.54376220703125,1125.581298828125,57.150001525878906
1659027033924550700,8.343550537109374,-288.4312744140625,1125.7125244140625,57.41250228881836
1659027033934550500,8.353550537109374,-288.28125,1125.8250732421875,57.58125305175781
1659027033944550700,8.363550537109376,-288.2062683105469,1125.9375,57.750003814697266
1659027033954550500,8.373550537109375,-288.1312561035156,1125.862548828125,57.76875305175781
1659027033964550700,8.383550537109375,-288,1125.7125244140625,57.712501525878906
1659027033974550500,8.393550537109375,-287.9625244140625,1125.8250732421875,57.76875305175781
1659027033984550700,8.403550537109375,-287.8312683105469,1125.9937744140625,57.618751525878906
1659027033994550500,8.413550537109375,-287.5875244140625,1125.956298828125,57.76875305175781
1659027034004550700,8.423550537109374,-287.70001220703125,1125.9188232421875,57.67500305175781
1659027034014550500,8.433550537109374,-287.7750244140625,1125.78759765625,57.525001525878906
1659027034024550700,8.443550537109376,-287.6437683105469,1125.768798828125,57.50625228881836
1659027034034550500,8.453550537109376,-287.6812744140625,1126.0875244140625,57.50625228881836
1659027034044550700,8.463550537109375,-287.8312683105469,1126.06884765625,57.750003814697266
1659027034054550500,8.473550537109375,-287.7562561035156,1125.75,57.843753814697266
1659027034064550700,8.483550537109375,-287.8125,1125.768798828125,57.95625305175781
1659027034074550500,8.493550537109375,-287.90625,1125.88134765625,57.76875305175781
1659027034084550700,8.503550537109374,-288.2062683105469,1125.88134765625,57.82500076293945
1659027034094550500,8.513550537109374,-288.16876220703125,1125.84375,57.76875305175781
1659027034104550700,8.523550537109376,-288.2062683105469,1125.7125244140625,57.618751525878906
1659027034114550500,8.533550537109376,-288.3000183105469,1125.5250244140625,57.69375228881836
1659027034124550700,8.543550537109375,-288.2437744140625,1125.375,57.41250228881836
1659027034134550500,8.553550537109375,-288.4125061035156,1125.50634765625,57.03750228881836
1659027034144550700,8.563550537109375,-288.4312744140625,1125.375,56.85000228881836
1659027034154550500,8.573550537109375,-288.28125,1125.3563232421875,57.13125228881836
1659027034164550700,8.583550537109375,-287.88751220703125,1125.5438232421875,57.16875076293945
1659027034174550500,8.593550537109374,-288.0187683105469,1125.5625,57.20625305175781
1659027034184550700,8.603550537109374,-288.2437744140625,1125.4312744140625,57.337501525878906
1659027034194550500,8.613550537109376,-288.375,1125.5250244140625,57.281253814697266
1659027034204550700,8.623550537109375,-288.26251220703125,1125.7313232421875,57.375003814697266
1659027034214550500,8.633550537109375,-288.3000183105469,1125.69384765625,57.48750305175781
1659027034224550700,8.643550537109375,-288.46875,1125.5625,57.48750305175781
1659027034234550500,8.653550537109375,-288.6937561035156,1125.4500732421875,57.375003814697266
1659027034244550700,8.663550537109375,-289.03125,1125.393798828125,57.281253814697266
1659027034254550500,8.673550537109374,-288.8812561035156,1125.375,57.20625305175781
1659027034264550700,8.683550537109374,-288.6750183105469,1125.487548828125,57.150001525878906
1659027034274550500,8.693550537109376,-288.7125244140625,1125.393798828125,56.98125076293945
1659027034284550700,8.703550537109376,-288.75,1125.300048828125,57.20625305175781
1659027034294550500,8.713550537109375,-288.63751220703125,1125.206298828125,57.11250305175781
1659027034304550700,8.723550537109375,-288.5625,1125.31884765625,57.31875228881836
1659027034314550500,8.733550537109375,-288.5062561035156,1125.375,57.31875228881836
1659027034324550700,8.743550537109375,-288.5625,1125.2625732421875,57.07500076293945
1659027034334550500,8.753550537109374,-288.63751220703125,1125.3375244140625,57.03750228881836
1659027034344550700,8.763550537109374,-288.6937561035156,1125.5438232421875,56.962501525878906
1659027034354550500,8.773550537109376,-288.6937561035156,1125.768798828125,57.093753814697266
1659027034364550700,8.783550537109376,-288.5625,1125.97509765625,56.83125305175781
1659027034374550500,8.793550537109375,-288.5250244140625,1126.1812744140625,57.11250305175781
1659027034384550700,8.803550537109375,-288.3000183105469,1126.1812744140625,57.03750228881836
1659027034394550500,8.813550537109375,-288.1875,1126.125,57.093753814697266
1659027034404550700,8.823550537109375,-287.8312683105469,1125.9937744140625,57.31875228881836
1659027034414550500,8.833550537109375,-287.79376220703125,1126.125,57.45000076293945
1659027034424550700,8.843550537109374,-287.6625061035156,1126.06884765625,57.60000228881836
1659027034434550500,8.853550537109374,-287.4375,1125.88134765625,57.60000228881836
1659027034444550700,8.863550537109376,-287.5500183105469,1125.768798828125,57.525001525878906
1659027034454550500,8.873550537109375,-287.6812744140625,1125.768798828125,57.243751525878906
1659027034464550700,8.883550537109375,-287.8312683105469,1125.862548828125,57.30000305175781
1659027034474550500,8.893550537109375,-287.9250183105469,1125.9000244140625,57.26250076293945
1659027034484550700,8.903550537109375,-288.1312561035156,1126.1063232421875,57.281253814697266
1659027034494550500,8.913550537109375,-287.98126220703125,1125.97509765625,57.30000305175781
1659027034504550700,8.923550537109374,-288.26251220703125,1125.956298828125,57.281253814697266
1659027034514550500,8.933550537109374,-288.1312561035156,1125.9937744140625,57.31875228881836
1659027034524550700,8.943550537109376,-288.09375,1125.9000244140625,57.30000305175781
1659027034534550500,8.953550537109376,-288.0562744140625,1125.8062744140625,57.39375305175781
1659027034544550700,8.963550537109375,-287.9250183105469,1125.8062744140625,57.525001525878906
1659027034554550500,8.973550537109375,-287.71875,1125.97509765625,57.54375076293945
1659027034564550700,8.983550537109375,-287.60626220703125,1125.9937744140625,57.618751525878906
1659027034574550500,8.993550537109375,-287.9625244140625,1126.143798828125,57.54375076293945
1659027034584550700,9.003550537109374,-287.8312683105469,1125.9937744140625,57.58125305175781
1659027034594550500,9.013550537109374,-287.9437561035156,1126.1063232421875,57.50625228881836
1659027034604550700,9.023550537109376,-287.9437561035156,1126.06884765625,57.656253814697266
1659027034614550500,9.033550537109376,-287.88751220703125,1126.06884765625,57.656253814697266
1659027034624550700,9.043550537109375,-288.1125183105469,1125.9375,57.41250228881836
1659027034634550500,9.053550537109375,-288.3375244140625,1125.8250732421875,57.337501525878906
1659027034644550700,9.063550537109375,-288.5062561035156,1125.8062744140625,57.30000305175781
1659027034654550500,9.073550537109375,-288.3000183105469,1125.6187744140625,57.187503814697266
1659027034664550700,9.083550537109375,-288.35626220703125,1125.9375,57.07500076293945
1659027034674550500,9.093550537109374,-288.45001220703125,1125.675048828125,57.22500228881836
1659027034684550700,9.103550537109374,-288.35626220703125,1125.69384765625,57.093753814697266
1659027034694550500,9.113550537109376,-288.3937683105469,1125.8062744140625,57.16875076293945
1659027034704550700,9.123550537109375,-288.16876220703125,1125.75,57.20625305175781
1659027034714550500,9.133550537109375,-288.07501220703125,1125.84375,57.187503814697266
1659027034724550700,9.143550537109375,-288.0375061035156,1125.69384765625,57.30000305175781
1659027034734550500,9.153550537109375,-288.0375061035156,1125.675048828125,57.41250228881836
1659027034744550700,9.163550537109375,-287.6437683105469,1125.5438232421875,57.54375076293945
1659027034754550500,9.173550537109374,-287.7562561035156,1125.6187744140625,57.39375305175781
1659027034764550700,9.183550537109374,-287.8687744140625,1125.6375732421875,57.375003814697266
1659027034774550500,9.193550537109376,-287.71875,1125.75,57.337501525878906
1659027034784550700,9.203550537109376,-287.90625,1125.7125244140625,57.20625305175781
1659027034794550500,9.213550537109375,-287.9437561035156,1125.50634765625,57.187503814697266
1659027034804550700,9.223550537109375,-287.8500061035156,1125.5438232421875,57.056251525878906
1659027034814550500,9.233550537109375,-287.98126220703125,1125.581298828125,56.94375228881836
1659027034824550700,9.243550537109375,-288.3375244140625,1125.5625,56.75625228881836
1659027034834550500,9.253550537109374,-288.3187561035156,1125.581298828125,56.64375305175781
1659027034844550700,9.263550537109374,-288.5625,1125.50634765625,56.64375305175781
1659027034854550500,9.273550537109376,-288.7125244140625,1125.1688232421875,56.625003814697266
1659027034864550700,9.283550537109376,-288.7125244140625,1125.375,56.493751525878906
1659027034874550500,9.293550537109375,-288.73126220703125,1125.206298828125,56.51250076293945
1659027034884550700,9.303550537109375,-288.7125244140625,1125.41259765625,56.36250305175781
1659027034894550500,9.313550537109375,-288.46875,1125.487548828125,56.55000305175781
1659027034904550700,9.323550537109375,-288.46875,1125.41259765625,56.60625076293945
1659027034914550500,9.333550537109375,-288.35626220703125,1125.5625,56.66250228881836
1659027034924550700,9.343550537109374,-288.0187683105469,1125.78759765625,56.775001525878906
1659027034934550500,9.353550537109374,-288.1312561035156,1125.9375,56.681251525878906
1659027034944550700,9.363550537109376,-288.07501220703125,1125.8250732421875,57.16875076293945
1659027034954550500,9.373550537109375,-287.88751220703125,1125.956298828125,57.16875076293945
1659027034964550700,9.383550537109375,-288.1125183105469,1125.7125244140625,57.26250076293945
1659027034974550500,9.393550537109375,-288.2437744140625,1125.675048828125,57.26250076293945
1659027034984550700,9.403550537109375,-288.3937683105469,1125.9000244140625,57.20625305175781
1659027034994550500,9.413550537109375,-288.5062561035156,1125.675048828125,57.243751525878906
1659027035004550700,9.423550537109374,-288.5250244140625,1125.50634765625,57.35625076293945
1659027035014550500,9.433550537109374,-288.2250061035156,1125.50634765625,57.35625076293945
1659027035024550700,9.443550537109376,-288.2250061035156,1125.7125244140625,57.187503814697266
1659027035034550500,9.453550537109376,-288.4125061035156,1125.675048828125,57.150001525878906
1659027035044550700,9.463550537109375,-288.3187561035156,1125.9188232421875,57.11250305175781
1659027035054550500,9.473550537109375,-288.3000183105469,1125.84375,57.13125228881836
1659027035064550700,9.483550537109375,-288,1125.78759765625,57.20625305175781
1659027035074550500,9.493550537109375,-287.8125,1125.88134765625,57.11250305175781
1659027035084550700,9.503550537109374,-287.7750244140625,1125.69384765625,57.01875305175781
1659027035094550500,9.513550537109374,-287.7562561035156,1125.675048828125,57.03750228881836
1659027035104550700,9.523550537109376,-287.8312683105469,1125.5625,57.056251525878906
1659027035114550500,9.533550537109376,-287.9250183105469,1125.78759765625,57.093753814697266
1659027035124550700,9.543550537109375,-287.60626220703125,1125.75,57.11250305175781
1659027035134550500,9.553550537109375,-287.51251220703125,1125.60009765625,56.92500305175781
1659027035144550700,9.563550537109375,-287.4937744140625,1125.3563232421875,57.000003814697266
1659027035154550500,9.573550537109375,-287.6625061035156,1125.375,57.03750228881836
1659027035164550700,9.583550537109375,-287.9250183105469,1125.956298828125,56.98125076293945
1659027035174550500,9.593550537109374,-288.0562744140625,1125.9375,57.150001525878906
1659027035184550700,9.603550537109374,-288.0187683105469,1125.956298828125,57.337501525878906
1659027035194550500,9.613550537109376,-288.0562744140625,1126.050048828125,57.468753814697266
1659027035204550700,9.623550537109375,-288.35626220703125,1126.0125732421875,57.45000076293945
1659027035214550500,9.633550537109375,-288.46875,1126.331298828125,57.618751525878906
1659027035224550700,9.643550537109375,-288.6187744140625,1126.21875,57.63750076293945
1659027035234550500,9.653550537109375,-288.8062744140625,1126.125,57.60000228881836
1659027035244550700,9.663550537109375,-288.7125244140625,1125.6187744140625,57.63750076293945
1659027035254550500,9.673550537109374,-288.9562683105469,1125.8062744140625,57.54375076293945
1659027035264550700,9.683550537109374,-289.03125,1125.6187744140625,57.056251525878906
1659027035274550500,9.693550537109376,-289.10626220703125,1125.22509765625,56.92500305175781
1659027035284550700,9.703550537109376,-288.9375,1125.112548828125,56.94375228881836
1659027035294550500,9.713550537109375,-288.75,1124.9625244140625,56.88750076293945
1659027035304550700,9.723550537109375,-288.84375,1125.1688232421875,56.70000076293945
1659027035314550500,9.733550537109375,-288.75,1125.28125,56.70000076293945
1659027035324550700,9.743550537109375,-288.7125244140625,1125.3563232421875,56.70000076293945
1659027035334550500,9.753550537109374,-288.6187744140625,1125.1688232421875,56.66250228881836
1659027035344550700,9.763550537109374,-288.5812683105469,1125.1875,56.85000228881836
1659027035354550500,9.773550537109376,-288.375,1125.487548828125,56.92500305175781
1659027035364550700,9.783550537109376,-288.4125061035156,1125.60009765625,56.906253814697266
1659027035374550500,9.793550537109375,-288.5812683105469,1125.5625,56.94375228881836
1659027035384550700,9.803550537109375,-288.4875183105469,1125.50634765625,57.07500076293945
1659027035394550500,9.813550537109375,-288.4312744140625,1125.65625,57.26250076293945
1659027035404550700,9.823550537109375,-288.1875,1125.7125244140625,57.20625305175781
1659027035414550500,9.833550537109375,-287.90625,1125.8250732421875,57.22500228881836
1659027035424550700,9.843550537109374,-287.79376220703125,1125.9000244140625,57.243751525878906
1659027035434550500,9.853550537109374,-287.5500183105469,1125.88134765625,57.20625305175781
1659027035444550700,9.863550537109376,-287.5500183105469,1125.9188232421875,57.243751525878906
1659027035454550500,9.873550537109375,-287.6437683105469,1126.050048828125,57.056251525878906
1659027035464550700,9.883550537109375,-287.4937744140625,1126.1812744140625,57.16875076293945
1659027035474550500,9.893550537109375,-287.51251220703125,1126.03125,57.000003814697266
1659027035484550700,9.903550537109375,-287.7375183105469,1126.06884765625,57.093753814697266
1659027035494550500,9.913550537109375,-287.7562561035156,1125.9188232421875,57.056251525878906
1659027035504550700,9.923550537109374,-287.79376220703125,1125.862548828125,57.000003814697266
1659027035514550500,9.933550537109374,-288,1125.88134765625,56.98125076293945
1659027035524550700,9.943550537109376,-288.07501220703125,1125.84375,57.07500076293945
1659027035534550500,9.953550537109376,-287.9625244140625,1125.7125244140625,57.30000305175781
1659027035544550700,9.963550537109375,-288.0375061035156,1125.78759765625,57.375003814697266
1659027035554550500,9.973550537109375,-287.8687744140625,1126.050048828125,57.525001525878906
1659027035564550700,9.983550537109375,-287.8500061035156,1125.75,57.525001525878906
1659027035574550500,9.993550537109375,-288.0187683105469,1125.768798828125,57.468753814697266
1659027035584550700,10.003550537109374,-288.1875,1125.862548828125,57.525001525878906
1659027035594550500,10.013550537109374,-288.375,1125.7125244140625,57.41250228881836
1659027035604550700,10.023550537109376,-288.3375244140625,1125.6187744140625,57.375003814697266
1659027035614550500,10.033550537109376,-288.4125061035156,1125.6187744140625,57.281253814697266
1659027035624550700,10.043550537109375,-288.5812683105469,1125.41259765625,57.07500076293945
1659027035634550500,10.053550537109375,-288.6937561035156,1125.206298828125,56.92500305175781
1659027035644550700,10.063550537109375,-288.82501220703125,1125.487548828125,57.000003814697266
1659027035654550500,10.073550537109375,-288.82501220703125,1125.7125244140625,57.26250076293945
1659027035664550700,10.083550537109375,-288.6000061035156,1125.675048828125,57.30000305175781
1659027035674550500,10.093550537109374,-288.4312744140625,1125.9000244140625,57.375003814697266
1659027035684550700,10.103550537109374,-288.45001220703125,1125.862548828125,57.20625305175781
1659027035694550500,10.113550537109376,-288.4125061035156,1125.8062744140625,57.20625305175781
1659027035704550700,10.123550537109375,-288.07501220703125,1125.78759765625,57.13125228881836
1659027035714550500,10.133550537109375,-288,1125.7125244140625,57.20625305175781
1659027035724550700,10.143550537109375,-288,1125.60009765625,56.98125076293945
1659027035734550500,10.153550537109375,-288.0187683105469,1125.22509765625,56.75625228881836
1659027035744550700,10.163550537109375,-288.0562744140625,1125.300048828125,56.718753814697266
1659027035754550500,10.173550537109374,-288.09375,1125.112548828125,56.812503814697266
1659027035764550700,10.183550537109374,-288.1500244140625,1125.206298828125,56.812503814697266
1659027035774550500,10.193550537109376,-288.1500244140625,1125.3375244140625,56.83125305175781
1659027035784550700,10.203550537109376,-288.3000183105469,1125.75,57.01875305175781
1659027035794550500,10.213550537109375,-288.3375244140625,1125.75,57.01875305175781
1659027035804550700,10.223550537109375,-288.3187561035156,1125.6375732421875,57.13125228881836
1659027035814550500,10.233550537109375,-288.2437744140625,1125.9375,57.30000305175781
1659027035824550700,10.243550537109375,-288.26251220703125,1125.7313232421875,57.281253814697266
1659027035834550500,10.253550537109374,-288.1312561035156,1125.862548828125,57.13125228881836
1659027035844550700,10.263550537109374,-287.9250183105469,1125.8062744140625,57.337501525878906
1659027035854550500,10.273550537109376,-287.90625,1125.75,57.39375305175781
1659027035864550700,10.283550537109376,-287.98126220703125,1125.4500732421875,57.375003814697266
1659027035874550500,10.293550537109375,-288.07501220703125,1125.487548828125,57.337501525878906
1659027035884550700,10.303550537109375,-287.9437561035156,1125.5625,57.22500228881836
1659027035894550500,10.313550537109375,-287.8125,1125.46875,57.31875228881836
1659027035904550700,10.323550537109375,-287.88751220703125,1125.675048828125,57.375003814697266
1659027035914550500,10.333550537109375,-287.8312683105469,1125.768798828125,57.468753814697266
1659027035924550700,10.343550537109374,-288,1125.768798828125,57.337501525878906
1659027035934550500,10.353550537109374,-287.98126220703125,1125.75,57.26250076293945
1659027035944550700,10.363550537109376,-287.98126220703125,1125.60009765625,57.20625305175781
1659027035954550500,10.373550537109375,-288.1125183105469,1125.487548828125,57.337501525878906
1659027035964550700,10.383550537109375,-288.26251220703125,1125.5625,57.45000076293945
1659027035974550500,10.393550537109375,-288.3187561035156,1125.5438232421875,57.281253814697266
1659027035984550700,10.403550537109375,-288.3375244140625,1125.5250244140625,57.39375305175781
1659027035994550500,10.413550537109375,-288.6000061035156,1125.4312744140625,57.31875228881836
1659027036004550700,10.423550537109374,-288.5812683105469,1125.393798828125,57.243751525878906
1659027036014550500,10.433550537109374,-288.7125244140625,1125.487548828125,57.30000305175781
1659027036024550700,10.443550537109376,-288.6750183105469,1125.65625,57.31875228881836
1659027036034550500,10.453550537109376,-288.5812683105469,1125.75,57.187503814697266
1659027036044550700,10.463550537109375,-288.54376220703125,1125.7125244140625,57.150001525878906
1659027036054550500,10.473550537109375,-288.5812683105469,1125.7313232421875,57.20625305175781
1659027036064550700,10.483550537109375,-288.375,1125.768798828125,57.056251525878906
1659027036074550500,10.493550537109375,-288.2437744140625,1125.6375732421875,57.056251525878906
1659027036084550700,10.503550537109374,-288.2437744140625,1125.768798828125,57.01875305175781
1659027036094550500,10.513550537109374,-288.1875,1125.6375732421875,57.150001525878906
1659027036104550700,10.523550537109376,-288.3375244140625,1125.65625,57.07500076293945
1659027036114550500,10.533550537109376,-288.3375244140625,1125.65625,57.07500076293945
1659027036124550700,10.543550537109375,-288.45001220703125,1125.956298828125,57.056251525878906
1659027036134550500,10.553550537109375,-288.5250244140625,1125.956298828125,57.093753814697266
1659027036144550700,10.563550537109375,-288.65625,1125.75,56.92500305175781
1659027036154550500,10.573550537109375,-288.7875061035156,1125.862548828125,57.056251525878906
1659027036164550700,10.583550537109375,-288.7687683105469,1125.78759765625,57.337501525878906
1659027036174550500,10.593550537109374,-288.73126220703125,1125.9000244140625,57.000003814697266
1659027036184550700,10.603550537109374,-288.5625,1125.69384765625,57.16875076293945
1659027036194550500,10.613550537109376,-288.54376220703125,1125.581298828125,57.056251525878906
1659027036204550700,10.623550537109375,-288.16876220703125,1125.31884765625,57.22500228881836
1659027036214550500,10.633550537109375,-288.16876220703125,1125.4500732421875,57.056251525878906
1659027036224550700,10.643550537109375,-288.2437744140625,1125.60009765625,57.26250076293945
1659027036234550500,10.653550537109375,-288.16876220703125,1125.6375732421875,56.98125076293945
1659027036244550700,10.663550537109375,-288.26251220703125,1125.7313232421875,56.98125076293945
1659027036254550500,10.673550537109374,-288.2250061035156,1125.78759765625,57.01875305175781
1659027036264550700,10.683550537109374,-288.4125061035156,1125.97509765625,56.73750305175781
1659027036274550500,10.693550537109376,-288.2250061035156,1125.9937744140625,56.906253814697266
1659027036284550700,10.703550537109376,-288.3000183105469,1126.06884765625,56.775001525878906
1659027036294550500,10.713550537109375,-288.1500244140625,1125.956298828125,56.85000228881836
1659027036304550700,10.723550537109375,-287.90625,1125.9000244140625,56.962501525878906
1659027036314550500,10.733550537109375,-287.8687744140625,1125.8250732421875,57.03750228881836
1659027036324550700,10.743550537109375,-287.79376220703125,1125.75,56.868751525878906
1659027036334550500,10.753550537109374,-287.9625244140625,1125.7125244140625,57.000003814697266
1659027036344550700,10.763550537109374,-287.9250183105469,1125.60009765625,57.16875076293945
1659027036354550500,10.773550537109376,-287.9250183105469,1125.60009765625,57.30000305175781
1659027036364550700,10.783550537109376,-287.9625244140625,1125.4500732421875,57.54375076293945
1659027036374550500,10.793550537109375,-288.07501220703125,1125.3375244140625,57.525001525878906
1659027036384550700,10.803550537109375,-288.0375061035156,1125.393798828125,57.375003814697266
1659027036394550500,10.813550537109375,-287.9625244140625,1125.5438232421875,57.50625228881836
1659027036404550700,10.823550537109375,-288.0375061035156,1125.46875,57.58125305175781
1659027036414550500,10.833550537109375,-287.88751220703125,1125.3563232421875,57.468753814697266
1659027036424550700,10.843550537109374,-288.0187683105469,1125.581298828125,57.656253814697266
1659027036434550500,10.853550537109374,-288.09375,1125.6187744140625,57.54375076293945
1659027036444550700,10.863550537109376,-288.1500244140625,1125.84375,57.375003814697266
1659027036454550500,10.873550537109375,-288.1500244140625,1125.675048828125,57.468753814697266
1659027036464550700,10.883550537109375,-288.1125183105469,1125.6375732421875,57.468753814697266
1659027036474550500,10.893550537109375,-288.3000183105469,1125.65625,57.48750305175781
1659027036484550700,10.903550537109375,-288.28125,1125.7313232421875,57.39375305175781
1659027036494550500,10.913550537109375,-288.28125,1125.956298828125,57.45000076293945
1659027036504550700,10.923550537109374,-287.9250183105469,1125.75,57.431251525878906
1659027036514550500,10.933550537109374,-287.9437561035156,1125.9375,57.337501525878906
1659027036524550700,10.943550537109376,-287.88751220703125,1125.768798828125,57.375003814697266
1659027036534550500,10.953550537109376,-288.0375061035156,1126.1812744140625,57.22500228881836
1659027036544550700,10.963550537109375,-288.3375244140625,1125.956298828125,57.20625305175781
1659027036554550500,10.973550537109375,-288.1125183105469,1125.581298828125,57.01875305175781
1659027036564550700,10.983550537109375,-287.98126220703125,1125.581298828125,57.07500076293945
1659027036574550500,10.993550537109375,-287.90625,1125.5250244140625,57.187503814697266
1659027036584550700,11.003550537109374,-287.98126220703125,1125.2437744140625,57.07500076293945
1659027036594550500,11.013550537109374,-287.9250183105469,1124.8875732421875,57.03750228881836
1659027036604550700,11.023550537109376,-288,1124.90625,56.868751525878906
1659027036614550500,11.033550537109376,-287.9437561035156,1124.8875732421875,56.88750076293945
1659027036624550700,11.043550537109375,-287.7562561035156,1125.112548828125,57.01875305175781
1659027036634550500,11.053550537109375,-287.9625244140625,1125.206298828125,57.01875305175781
1659027036644550700,11.063550537109375,-288,1125.1500244140625,56.906253814697266
1659027036654550500,11.073550537109375,-288.0562744140625,1125.2437744140625,56.83125305175781
1659027036664550700,11.083550537109375,-287.9437561035156,1125.5250244140625,56.66250228881836
1659027036674550500,11.093550537109374,-287.98126220703125,1125.7125244140625,56.66250228881836
1659027036684550700,11.103550537109374,-287.8125,1125.69384765625,56.775001525878906
1659027036694550500,11.113550537109376,-287.79376220703125,1125.41259765625,56.85000228881836
1659027036704550700,11.123550537109375,-287.9250183105469,1125.487548828125,56.75625228881836
1659027036714550500,11.133550537109375,-287.8125,1125.6375732421875,56.66250228881836
1659027036724550700,11.143550537109375,-287.7750244140625,1125.60009765625,56.73750305175781
1659027036734550500,11.153550537109375,-287.90625,1125.4500732421875,56.51250076293945
1659027036744550700,11.163550537109375,-288.0375061035156,1125.5438232421875,56.55000305175781
1659027036754550500,11.173550537109374,-288.3000183105469,1125.581298828125,56.625003814697266
1659027036764550700,11.183550537109374,-288.5062561035156,1125.7313232421875,56.64375305175781
1659027036774550500,11.193550537109376,-288.5250244140625,1125.862548828125,56.83125305175781
1659027036784550700,11.203550537109376,-288.45001220703125,1125.8250732421875,56.962501525878906
1659027036794550500,11.213550537109375,-288.6187744140625,1125.7313232421875,57.281253814697266
1659027036804550700,11.223550537109375,-288.7687683105469,1125.8062744140625,57.22500228881836
1659027036814550500,11.233550537109375,-288.65625,1125.78759765625,57.375003814697266
1659027036824550700,11.243550537109375,-288.65625,1125.6375732421875,57.375003814697266
1659027036834550500,11.253550537109374,-288.46875,1125.768798828125,57.468753814697266
1659027036844550700,11.263550537109374,-288.5812683105469,1125.6375732421875,57.375003814697266
1659027036854550500,11.273550537109376,-288.375,1125.6375732421875,57.281253814697266
1659027036864550700,11.283550537109376,-288.2437744140625,1125.69384765625,57.243751525878906
1659027036874550500,11.293550537109375,-288.1125183105469,1125.8062744140625,57.26250076293945
1659027036884550700,11.303550537109375,-287.88751220703125,1125.9188232421875,57.281253814697266
1659027036894550500,11.313550537109375,-288.0375061035156,1126.0125732421875,57.39375305175781
1659027036904550700,11.323550537109375,-288.1125183105469,1125.97509765625,57.41250228881836
1659027036914550500,11.333550537109375,-288.16876220703125,1125.7313232421875,57.31875228881836
1659027036924550700,11.343550537109374,-288.1500244140625,1125.8062744140625,57.26250076293945
1659027036934550500,11.353550537109374,-288.09375,1125.8062744140625,57.150001525878906
1659027036944550700,11.363550537109376,-288.375,1125.9188232421875,57.150001525878906
1659027036954550500,11.373550537109375,-288.4125061035156,1125.6375732421875,57.20625305175781
1659027036964550700,11.383550537109375,-288.46875,1125.50634765625,57.243751525878906
1659027036974550500,11.393550537109375,-288.65625,1125.5438232421875,57.30000305175781
