time,seconds_elapsed,z,y,x
1659027025662653200,0.081653076171875,9.760323524475098,0.2871387302875519,0.003589233849197626
1659027025672323000,0.091322998046875,9.755537986755371,0.2763710021972656,-0.007178467698395252
1659027025681992700,0.10099267578125,9.765109062194824,0.2883351147174835,-0.004785645287483931
1659027025691662300,0.110662353515625,9.768698692321777,0.2847459018230438,-0.035892341285943985
1659027025701332200,0.120332275390625,9.77826976776123,0.30508488416671753,-0.02153540402650833
1659027025711001900,0.130001953125,9.779465675354004,0.3038884699344635,-0.035892341285943985
1659027025720671500,0.13967138671875,9.78544807434082,0.3074777126312256,-0.02871387079358101
1659027025730341400,0.14934130859375,9.7938232421875,0.31465616822242737,-0.02751746028661728
1659027025740011000,0.159010986328125,9.814162254333496,0.3158525824546814,-0.020338991656899452
1659027025749680600,0.1686806640625,9.805787086486816,0.32183465361595154,-0.02512463741004467
1659027025759350500,0.1783505859375,9.795019149780273,0.33379876613616943,-0.003589233849197626
1659027025769020200,0.188020263671875,9.796216011047363,0.33020952343940735,0.003589233849197626
1659027025778690000,0.19768994140625,9.817750930786133,0.32662028074264526,-0.0023928226437419653
1659027025788359700,0.207359619140625,9.803394317626953,0.3206382393836975,0.013160524889826775
1659027025798029300,0.217029296875,9.80219841003418,0.3326023519039154,0.016749758273363113
1659027025807699200,0.22669921875,9.795019149780273,0.31465616822242737,0.02871387079358101
1659027025817368800,0.236368896484375,9.797411918640137,0.3122633695602417,-0.0011964113218709826
1659027025827038500,0.24603857421875,9.784252166748047,0.3122633695602417,0.010767702013254166
1659027025836708400,0.255708251953125,9.76391315460205,0.3026920557022095,0.016749758273363113
1659027025846378000,0.2653779296875,9.759127616882324,0.30149564146995544,0.02153540402650833
1659027025856047600,0.275047607421875,9.762716293334961,0.31824541091918945,0.02153540402650833
1659027025865717500,0.284717529296875,9.781859397888184,0.31465616822242737,0.02512463741004467
1659027025875387100,0.29438720703125,9.775876998901367,0.30508488416671753,0.02512463741004467
1659027025885057000,0.30405712890625,9.761520385742188,0.3038884699344635,0.02751746028661728
1659027025894726700,0.3137265625,9.765109062194824,0.30628129839897156,0.031106693670153618
1659027025904396300,0.323396240234375,9.765109062194824,0.28594231605529785,0.031106693670153618
1659027025914066200,0.333066162109375,9.795019149780273,0.28953152894973755,0.009571290574967861
1659027025923735800,0.34273583984375,9.77707290649414,0.2991028428077698,0.01196411345154047
1659027025933405400,0.352405517578125,9.77707290649414,0.29312077164649963,0
1659027025943075300,0.362075439453125,9.774680137634277,0.2955136001110077,-0.007178467698395252
1659027025952745000,0.371744873046875,9.728020668029785,0.31345975399017334,0.0011964113218709826
1659027025962414600,0.38141455078125,9.56770133972168,0.26919254660606384,0.020338991656899452
1659027025972084500,0.39108447265625,9.789037704467773,0.2584248483181,0.01196411345154047
1659027025981754000,0.400754150390625,9.993623733520508,0.28235307335853577,-0.004785645287483931
1659027025991423700,0.410423828125,10.106086730957031,0.3601198196411133,-0.010767702013254166
1659027026001093600,0.42009375,9.879964828491211,0.380458801984787,-0.020338991656899452
1659027026010763300,0.42976318359375,9.714859962463379,0.39601215720176697,-0.02273181453347206
1659027026020433000,0.439432861328125,9.645467758178711,0.37447673082351685,-0.02273181453347206
1659027026030102800,0.449102783203125,9.743574142456055,0.3481557071208954,-0.05383851006627083
1659027026039772400,0.4587724609375,9.869196891784668,0.33858439326286316,-0.061016976833343506
1659027026049442000,0.468442138671875,9.90987491607666,0.31465616822242737,-0.07058826833963394
1659027026059112000,0.47811181640625,9.747162818908691,0.2787638306617737,-0.07178468257188797
1659027026068781600,0.487781494140625,9.739984512329102,0.2512463629245758,-0.05383851006627083
1659027026078451200,0.497451171875,9.862018585205078,0.27756741642951965,-0.039481572806835175
1659027026088121000,0.50712109375,9.787840843200684,0.25722843408584595,-0.02632104977965355
1659027026097790700,0.516790771484375,9.707681655883789,0.275174617767334,-0.005982056725770235
1659027026107460400,0.52646044921875,9.753145217895508,0.30987054109573364,-0.0011964113218709826
1659027026117130200,0.536130126953125,9.78664493560791,0.3314059376716614,0.016749758273363113
1659027026126800000,0.5457998046875,9.828518867492676,0.3517449200153351,0.059820566326379776
1659027026136469500,0.555469482421875,9.806983947753906,0.35413774847984314,0.059820566326379776
1659027026146139400,0.565139404296875,9.711270332336426,0.34576287865638733,0.06580262631177902
1659027026155809000,0.57480908203125,9.749555587768555,0.3278166949748993,0.04905286431312561
1659027026165479000,0.58447900390625,9.827322959899902,0.31106695532798767,0.05383851006627083
1659027026175148500,0.5941484375,9.862018585205078,0.2955136001110077,0.05383851006627083
1659027026184818200,0.603818115234375,9.783055305480957,0.2584248483181,0.059820566326379776
1659027026194488000,0.613488037109375,9.731609344482422,0.26201409101486206,0.04666004329919815
1659027026204157700,0.62315771484375,9.69093132019043,0.2548356056213379,0.03349951654672623
1659027026213827300,0.632827392578125,9.69212818145752,0.2787638306617737,0.02512463741004467
1659027026223497200,0.642497314453125,9.755537986755371,0.30987054109573364,0.02632104977965355
1659027026233166800,0.652166748046875,9.818947792053223,0.3242274820804596,0.02632104977965355
1659027026242836500,0.66183642578125,9.856036186218262,0.3433700501918793,0.010767702013254166
1659027026252506400,0.67150634765625,9.857233047485352,0.3565305769443512,0.003589233849197626
1659027026262176000,0.681176025390625,9.821340560913086,0.3433700501918793,-0.01196411345154047
1659027026271846000,0.690845947265625,9.795019149780273,0.3409772217273712,-0.02273181453347206
1659027026281515500,0.700515625,9.81655502319336,0.34576287865638733,-0.040677983313798904
1659027026291185200,0.71018505859375,9.845269203186035,0.3242274820804596,-0.06340979784727097
1659027026300855000,0.71985498046875,9.835697174072266,0.3206382393836975,-0.05144568532705307
1659027026310524700,0.729524658203125,9.810572624206543,0.31345975399017334,-0.04785645380616188
1659027026320194300,0.7391943359375,9.77826976776123,0.30149564146995544,-0.05383851006627083
1659027026329864200,0.7488642578125,9.774680137634277,0.2991028428077698,-0.04666004329919815
1659027026339533800,0.758533935546875,9.767501831054688,0.28235307335853577,-0.038285162299871445
1659027026349203500,0.768203369140625,9.760323524475098,0.3002992272377014,-0.019142581149935722
1659027026358873300,0.777873291015625,9.780662536621094,0.3002992272377014,-0.013160524889826775
1659027026368543000,0.78754296875,9.780662536621094,0.2907279431819916,-0.007178467698395252
1659027026378212900,0.797212890625,9.7938232421875,0.3002992272377014,-0.013160524889826775
1659027026387882500,0.806882568359375,9.774680137634277,0.31465616822242737,0.003589233849197626
1659027026397552000,0.81655224609375,9.79262638092041,0.2967100143432617,0.02273181453347206
1659027026407222000,0.826221923828125,9.790233612060547,0.30149564146995544,0.014356935396790504
1659027026416891600,0.8358916015625,9.824930191040039,0.32183465361595154,0.02512463741004467
1659027026426561300,0.845561279296875,9.80219841003418,0.30987054109573364,0.02153540402650833
1659027026436231200,0.855231201171875,9.783055305480957,0.31824541091918945,0.02751746028661728
1659027026445900800,0.86490087890625,9.765109062194824,0.31824541091918945,0.0323031060397625
1659027026455570400,0.8745703125,9.768698692321777,0.31465616822242737,0.039481572806835175
1659027026465240000,0.884239990234375,9.790233612060547,0.31465616822242737,0.039481572806835175
1659027026474910000,0.893909912109375,9.783055305480957,0.3242274820804596,0.04546362906694412
1659027026484579600,0.90357958984375,9.790233612060547,0.3086741268634796,0.04426721855998039
1659027026494249200,0.913249267578125,9.787840843200684,0.3074777126312256,0.019142581149935722
1659027026503919000,0.922919189453125,9.812965393066406,0.31345975399017334,0.0011964113218709826
1659027026513588700,0.932588623046875,9.7938232421875,0.30987054109573364,0.005982056725770235
1659027026523258400,0.94225830078125,9.780662536621094,0.28953152894973755,-0.015553346835076809
1659027026532928300,0.95192822265625,9.765109062194824,0.30987054109573364,-0.009571290574967861
1659027026542598000,0.961597900390625,9.779465675354004,0.2991028428077698,-0.02153540402650833
1659027026552267500,0.971267578125,9.790233612060547,0.2967100143432617,-0.02751746028661728
1659027026561937400,0.9809375,9.80100154876709,0.30628129839897156,-0.02512463741004467
1659027026571607000,0.99060693359375,9.804591178894043,0.31106695532798767,-0.02871387079358101
1659027026581277000,1.00027685546875,9.797411918640137,0.31345975399017334,-0.031106693670153618
1659027026590946600,1.009946533203125,9.798608779907227,0.30987054109573364,-0.016749758273363113
1659027026600616200,1.0196162109375,9.7998046875,0.32542386651039124,-0.02273181453347206
1659027026610286000,1.0292861328125,9.79262638092041,0.3158525824546814,-0.009571290574967861
1659027026619955700,1.038955810546875,9.787840843200684,0.32542386651039124,-0.015553346835076809
1659027026629625300,1.048625244140625,9.806983947753906,0.32303106784820557,-0.007178467698395252
1659027026639295200,1.058295166015625,9.810572624206543,0.3122633695602417,0.004785645287483931
1659027026648964900,1.06796484375,9.803394317626953,0.3170489966869354,0
1659027026658634500,1.077634521484375,9.7998046875,0.3170489966869354,0.014356935396790504
1659027026668304400,1.087304443359375,9.76989459991455,0.3158525824546814,0.0011964113218709826
1659027026677974000,1.09697412109375,9.787840843200684,0.3122633695602417,0.0011964113218709826
1659027026687644000,1.106643798828125,9.7938232421875,0.31465616822242737,0.015553346835076809
1659027026697313500,1.1163134765625,9.806983947753906,0.3170489966869354,0.010767702013254166
1659027026706983200,1.125983154296875,9.80817985534668,0.3122633695602417,0.02153540402650833
1659027026716653000,1.135653076171875,9.806983947753906,0.33379876613616943,0.01196411345154047
1659027026726322700,1.14532275390625,9.789037704467773,0.3290131092071533,0.009571290574967861
1659027026735992300,1.154992431640625,9.77707290649414,0.3170489966869354,0.02632104977965355
1659027026745662200,1.164662109375,9.795019149780273,0.31106695532798767,0.010767702013254166
1659027026755331800,1.174331787109375,9.803394317626953,0.30508488416671753,0.013160524889826775
1659027026765001500,1.18400146484375,9.7998046875,0.2871387302875519,0.005982056725770235
1659027026774671400,1.19367138671875,9.79262638092041,0.2883351147174835,-0.0023928226437419653
1659027026784341000,1.203341064453125,9.774680137634277,0.29431718587875366,-0.013160524889826775
1659027026794011000,1.213010986328125,9.77707290649414,0.29790642857551575,0.003589233849197626
1659027026803680500,1.222680419921875,9.77826976776123,0.3026920557022095,-0.003589233849197626
1659027026813350100,1.23235009765625,9.78544807434082,0.2955136001110077,-0.014356935396790504
1659027026823020000,1.24202001953125,9.7998046875,0.31465616822242737,-0.013160524889826775
1659027026832689700,1.251689697265625,9.795019149780273,0.29790642857551575,-0.004785645287483931
1659027026842359300,1.261359375,9.798608779907227,0.32183465361595154,-0.0011964113218709826
1659027026852029200,1.271029296875,9.80100154876709,0.3170489966869354,0.0023928226437419653
1659027026861698800,1.28069873046875,9.821340560913086,0.3326023519039154,0.0011964113218709826
1659027026871368400,1.290368408203125,9.817750930786133,0.3314059376716614,-0.009571290574967861
1659027026881038300,1.300038330078125,9.827322959899902,0.34217363595962524,0.0011964113218709826
1659027026890708000,1.3097080078125,9.820143699645996,0.32183465361595154,-0.014356935396790504
1659027026900377600,1.319377685546875,9.80219841003418,0.3122633695602417,-0.008374879136681557
1659027026910047500,1.329047607421875,9.790233612060547,0.31824541091918945,-0.009571290574967861
1659027026919717000,1.338717041015625,9.773484230041504,0.30628129839897156,-0.02273181453347206
1659027026929386800,1.34838671875,9.774680137634277,0.31345975399017334,-0.013160524889826775
1659027026939056400,1.358056396484375,9.781859397888184,0.2907279431819916,0
1659027026948726300,1.367726318359375,9.774680137634277,0.2907279431819916,0.003589233849197626
1659027026958396000,1.37739599609375,9.775876998901367,0.2967100143432617,0.01196411345154047
1659027026968065500,1.3870654296875,9.787840843200684,0.30149564146995544,0.014356935396790504
1659027026977735400,1.3967353515625,9.784252166748047,0.29431718587875366,0.01196411345154047
1659027026987405000,1.406405029296875,9.787840843200684,0.3170489966869354,0.02512463741004467
1659027026997075000,1.416074951171875,9.7938232421875,0.31824541091918945,0.003589233849197626
1659027027006744600,1.42574462890625,9.791430473327637,0.31824541091918945,0.017946170642971992
1659027027016414200,1.435414306640625,9.76989459991455,0.31465616822242737,0.015553346835076809
1659027027026084000,1.445083984375,9.798608779907227,0.3122633695602417,0.02273181453347206
1659027027035753700,1.454753662109375,9.804591178894043,0.30149564146995544,0.009571290574967861
1659027027045423400,1.46442333984375,9.817750930786133,0.3086741268634796,0.0023928226437419653
1659027027055093200,1.47409326171875,9.79262638092041,0.31106695532798767,0.009571290574967861
1659027027064763000,1.483762939453125,9.783055305480957,0.31106695532798767,0.003589233849197626
1659027027074432500,1.4934326171875,9.765109062194824,0.30149564146995544,0
1659027027084102400,1.503102294921875,9.784252166748047,0.2991028428077698,0.0011964113218709826
1659027027093772000,1.51277197265625,9.80100154876709,0.29312077164649963,-0.003589233849197626
1659027027103442000,1.52244189453125,9.80937671661377,0.3002992272377014,0
1659027027113111600,1.532111572265625,9.818947792053223,0.3074777126312256,0.004785645287483931
1659027027122781200,1.54178125,9.797411918640137,0.3026920557022095,-0.014356935396790504
1659027027132451000,1.551451171875,9.774680137634277,0.3326023519039154,-0.015553346835076809
1659027027142120700,1.56112060546875,9.781859397888184,0.33020952343940735,-0.009571290574967861
1659027027151790300,1.570790283203125,9.80219841003418,0.3074777126312256,-0.02273181453347206
1659027027161460200,1.580460205078125,9.828518867492676,0.32303106784820557,-0.02632104977965355
1659027027171129900,1.5901298828125,9.847661972045898,0.31345975399017334,-0.0323031060397625
1659027027180799700,1.5997998046875,9.814162254333496,0.3290131092071533,-0.031106693670153618
1659027027190469400,1.609469482421875,9.741181373596191,0.31345975399017334,-0.015553346835076809
1659027027200139000,1.619138916015625,9.79262638092041,0.2991028428077698,0.004785645287483931
1659027027209809000,1.628808837890625,9.842875480651855,0.29431718587875366,0.017946170642971992
1659027027219478500,1.638478515625,9.803394317626953,0.2835494875907898,0.015553346835076809
1659027027229148200,1.648148193359375,9.7005033493042,0.2847459018230438,0.016749758273363113
1659027027238818000,1.657818115234375,9.716055870056152,0.2883351147174835,0.004785645287483931
1659027027248487700,1.66748779296875,9.841679573059082,0.28953152894973755,0.010767702013254166
1659027027258157300,1.6771572265625,9.840482711791992,0.30628129839897156,0
1659027027267827200,1.6868271484375,9.762716293334961,0.31106695532798767,0.02392822690308094
1659027027277496800,1.696496826171875,9.749555587768555,0.31465616822242737,0.016749758273363113
1659027027287166700,1.706166748046875,9.806983947753906,0.3158525824546814,0.019142581149935722
1659027027296836400,1.71583642578125,9.871589660644531,0.3194418251514435,0
1659027027306506000,1.725506103515625,9.853643417358398,0.33379876613616943,0.005982056725770235
1659027027316176000,1.73517578125,9.787840843200684,0.3206382393836975,0.005982056725770235
1659027027325845500,1.744845458984375,9.762716293334961,0.33020952343940735,0.010767702013254166
1659027027335515100,1.75451513671875,9.81655502319336,0.3122633695602417,-0.008374879136681557
1659027027345185000,1.76418505859375,9.830911636352539,0.31824541091918945,-0.009571290574967861
1659027027354854700,1.773854736328125,9.812965393066406,0.2991028428077698,-0.008374879136681557
1659027027364524300,1.783524169921875,9.791430473327637,0.3002992272377014,-0.02273181453347206
1659027027374194200,1.793194091796875,9.783055305480957,0.2907279431819916,-0.008374879136681557
1659027027383863800,1.80286376953125,9.781859397888184,0.2787638306617737,-0.02632104977965355
1659027027393533700,1.81253369140625,9.77707290649414,0.275174617767334,-0.004785645287483931
1659027027403203300,1.822203369140625,9.77109146118164,0.30149564146995544,-0.017946170642971992
1659027027412873000,1.831873046875,9.80219841003418,0.3170489966869354,-0.02392822690308094
1659027027422542800,1.84154296875,9.833304405212402,0.3242274820804596,-0.029910283163189888
1659027027432212500,1.85121240234375,9.818947792053223,0.3290131092071533,-0.02512463741004467
1659027027441882000,1.860882080078125,9.7938232421875,0.3194418251514435,0.005982056725770235
1659027027451552000,1.870552001953125,9.779465675354004,0.32183465361595154,0.0023928226437419653
1659027027461221600,1.8802216796875,9.804591178894043,0.32303106784820557,-0.003589233849197626
1659027027470891300,1.889891357421875,9.847661972045898,0.32183465361595154,0
1659027027480561200,1.89956103515625,9.847661972045898,0.3194418251514435,0.0011964113218709826
1659027027490230800,1.909230712890625,9.7938232421875,0.30987054109573364,0.019142581149935722
1659027027499900700,1.918900634765625,9.751948356628418,0.2967100143432617,0.02512463741004467
1659027027509570300,1.9285703125,9.766305923461914,0.30149564146995544,-0.0023928226437419653
1659027027519240000,1.938239990234375,9.787840843200684,0.3002992272377014,0.014356935396790504
1659027027528909800,1.947909912109375,9.796216011047363,0.28953152894973755,0.0011964113218709826
1659027027538579500,1.957579345703125,9.7998046875,0.2871387302875519,0.0011964113218709826
1659027027548249000,1.9672490234375,9.789037704467773,0.2991028428077698,-0.007178467698395252
1659027027557919000,1.9769189453125,9.784252166748047,0.3170489966869354,0.013160524889826775
1659027027567588600,1.986588623046875,9.80937671661377,0.32662028074264526,-0.007178467698395252
1659027027577258200,1.99625830078125,9.839286804199219,0.3397808074951172,-0.010767702013254166
1659027027586928000,2.00592822265625,9.845269203186035,0.3409772217273712,0.0023928226437419653
1659027027596597800,2.01559765625,9.81535816192627,0.31824541091918945,-0.005982056725770235
1659027027606267600,2.025267578125,9.77707290649414,0.32183465361595154,0.008374879136681557
1659027027615937300,2.034937255859375,9.77707290649414,0.2991028428077698,-0.016749758273363113
1659027027625607000,2.04460693359375,9.796216011047363,0.31106695532798767,-0.004785645287483931
1659027027635276800,2.05427685546875,9.811769485473633,0.3026920557022095,-0.015553346835076809
1659027027644946400,2.063946533203125,9.7998046875,0.2907279431819916,-0.015553346835076809
1659027027654616000,2.073615966796875,9.772287368774414,0.2955136001110077,-0.02273181453347206
1659027027664286000,2.083285888671875,9.755537986755371,0.2955136001110077,-0.020338991656899452
1659027027673955600,2.09295556640625,9.768698692321777,0.2871387302875519,-0.004785645287483931
1659027027683625500,2.10262548828125,9.783055305480957,0.2871387302875519,-0.0011964113218709826
1659027027693295000,2.112295166015625,9.804591178894043,0.3026920557022095,0.003589233849197626
1659027027702964700,2.12196484375,9.821340560913086,0.3194418251514435,0.003589233849197626
1659027027712634600,2.131634521484375,9.81535816192627,0.31824541091918945,0.015553346835076809
1659027027722304300,2.14130419921875,9.80937671661377,0.33738797903060913,0.003589233849197626
1659027027731974000,2.150973876953125,9.798608779907227,0.3278166949748993,0.02751746028661728
1659027027741643800,2.160643798828125,9.80219841003418,0.3278166949748993,0.01196411345154047
1659027027751313400,2.1703134765625,9.805787086486816,0.3026920557022095,0.013160524889826775
1659027027760983000,2.179983154296875,9.806983947753906,0.31345975399017334,0
1659027027770653000,2.18965283203125,9.791430473327637,0.31345975399017334,0.019142581149935722
1659027027780322600,2.199322509765625,9.780662536621094,0.30508488416671753,0.02392822690308094
1659027027789992400,2.208992431640625,9.784252166748047,0.30628129839897156,0.014356935396790504
1659027027799662000,2.218662109375,9.789037704467773,0.3086741268634796,-0.0011964113218709826
1659027027809331700,2.228331787109375,9.798608779907227,0.29312077164649963,0.007178467698395252
1659027027819001600,2.238001708984375,9.791430473327637,0.3074777126312256,0.009571290574967861
1659027027828671200,2.247671142578125,9.781859397888184,0.29431718587875366,0.0023928226437419653
1659027027838340900,2.2573408203125,9.7938232421875,0.3038884699344635,0.009571290574967861
1659027027848010800,2.2670107421875,9.791430473327637,0.31106695532798767,0.004785645287483931
1659027027857680400,2.276680419921875,9.789037704467773,0.31465616822242737,-0.0023928226437419653
1659027027867350000,2.28635009765625,9.80100154876709,0.31465616822242737,0.0011964113218709826
1659027027877020000,2.29602001953125,9.7938232421875,0.31824541091918945,-0.017946170642971992
1659027027886689500,2.305689453125,9.790233612060547,0.31106695532798767,0.003589233849197626
1659027027896359400,2.315359375,9.80937671661377,0.2967100143432617,-0.01196411345154047
1659027027906029000,2.325029052734375,9.812965393066406,0.32183465361595154,-0.01196411345154047
1659027027915698700,2.33469873046875,9.827322959899902,0.32303106784820557,-0.013160524889826775
1659027027925368600,2.34436865234375,9.805787086486816,0.3170489966869354,-0.016749758273363113
1659027027935038200,2.3540380859375,9.80817985534668,0.30508488416671753,-0.01196411345154047
1659027027944707800,2.363707763671875,9.803394317626953,0.2907279431819916,-0.019142581149935722
1659027027954377700,2.373377685546875,9.797411918640137,0.3038884699344635,-0.017946170642971992
1659027027964047400,2.38304736328125,9.803394317626953,0.3038884699344635,-0.019142581149935722
1659027027973717000,2.392717041015625,9.798608779907227,0.31345975399017334,-0.017946170642971992
1659027027983387000,2.402386962890625,9.796216011047363,0.3074777126312256,-0.016749758273363113
1659027027993056500,2.412056396484375,9.78544807434082,0.30508488416671753,-0.013160524889826775
1659027028002726400,2.421726318359375,9.78544807434082,0.3086741268634796,-0.004785645287483931
1659027028012396000,2.43139599609375,9.796216011047363,0.32183465361595154,-0.0023928226437419653
1659027028022065700,2.441065673828125,9.797411918640137,0.30987054109573364,-0.01196411345154047
1659027028031735600,2.450735595703125,9.791430473327637,0.3170489966869354,-0.02512463741004467
1659027028041405200,2.4604052734375,9.7998046875,0.31106695532798767,-0.007178467698395252
1659027028051074800,2.47007470703125,9.797411918640137,0.31465616822242737,0.02273181453347206
1659027028060744700,2.47974462890625,9.805787086486816,0.29790642857551575,0.005982056725770235
1659027028070414300,2.489414306640625,9.798608779907227,0.30149564146995544,0.005982056725770235
1659027028080084000,2.499083984375,9.772287368774414,0.3074777126312256,0.020338991656899452
1659027028089753900,2.50875390625,9.812965393066406,0.2967100143432617,0.02512463741004467
1659027028099423500,2.518423583984375,9.82373332977295,0.2991028428077698,0.013160524889826775
1659027028109093400,2.52809326171875,9.790233612060547,0.2955136001110077,0.017946170642971992
1659027028118763000,2.537762939453125,9.773484230041504,0.30987054109573364,0.02273181453347206
1659027028128432600,2.5474326171875,9.780662536621094,0.30628129839897156,0.017946170642971992
1659027028138102500,2.5571025390625,9.774680137634277,0.3086741268634796,0.005982056725770235
1659027028147772200,2.566772216796875,9.820143699645996,0.32183465361595154,0.02273181453347206
1659027028157442000,2.576442138671875,9.811769485473633,0.31824541091918945,0.020338991656899452
1659027028167111700,2.586111572265625,9.810572624206543,0.31345975399017334,0.010767702013254166
1659027028176781300,2.59578125,9.81655502319336,0.31106695532798767,0.0023928226437419653
1659027028186451200,2.605451171875,9.814162254333496,0.32303106784820557,0.009571290574967861
1659027028196120800,2.615120849609375,9.814162254333496,0.32303106784820557,0.0023928226437419653
1659027028205790700,2.624790771484375,9.805787086486816,0.30628129839897156,-0.01196411345154047
1659027028215460400,2.63446044921875,9.810572624206543,0.30149564146995544,-0.009571290574967861
1659027028225130200,2.644130126953125,9.798608779907227,0.29431718587875366,-0.019142581149935722
1659027028234799900,2.6537998046875,9.796216011047363,0.2883351147174835,-0.008374879136681557
1659027028244469500,2.663469482421875,9.787840843200684,0.28953152894973755,-0.02153540402650833
1659027028254139400,2.673139404296875,9.756733894348145,0.3026920557022095,-0.02153540402650833
1659027028263809000,2.68280908203125,9.749555587768555,0.3002992272377014,-0.02632104977965355
1659027028273478700,2.692478759765625,9.768698692321777,0.30508488416671753,-0.02512463741004467
1659027028283148500,2.7021484375,9.822537422180176,0.3038884699344635,-0.014356935396790504
1659027028292818200,2.711818115234375,9.826126098632812,0.30508488416671753,0.007178467698395252
1659027028302488000,2.721488037109375,9.832108497619629,0.3122633695602417,0
1659027028312157700,2.73115771484375,9.834501266479492,0.31345975399017334,0.02871387079358101
1659027028321827300,2.740827392578125,9.803394317626953,0.30508488416671753,0.008374879136681557
1659027028331497200,2.750497314453125,9.79262638092041,0.3158525824546814,0.015553346835076809
1659027028341166800,2.760166748046875,9.798608779907227,0.31465616822242737,0.01196411345154047
1659027028350836500,2.76983642578125,9.79262638092041,0.30628129839897156,0.017946170642971992
1659027028360506400,2.77950634765625,9.798608779907227,0.32662028074264526,0.013160524889826775
1659027028370176000,2.789176025390625,9.803394317626953,0.32662028074264526,0.016749758273363113
1659027028379846000,2.798845947265625,9.791430473327637,0.30987054109573364,0.019142581149935722
1659027028389515500,2.808515625,9.781859397888184,0.2967100143432617,0.016749758273363113
1659027028399185200,2.81818505859375,9.760323524475098,0.30628129839897156,0.014356935396790504
1659027028408855000,2.82785498046875,9.783055305480957,0.30628129839897156,0.007178467698395252
1659027028418524700,2.837524658203125,9.7938232421875,0.3038884699344635,0.003589233849197626
1659027028428194300,2.8471943359375,9.806983947753906,0.3242274820804596,0.0011964113218709826
1659027028437864200,2.8568642578125,9.838089942932129,0.3194418251514435,0.003589233849197626
1659027028447533800,2.866533935546875,9.835697174072266,0.32183465361595154,-0.009571290574967861
1659027028457203700,2.87620361328125,9.826126098632812,0.3206382393836975,-0.017946170642971992
1659027028466873300,2.885873291015625,9.830911636352539,0.30508488416671753,-0.014356935396790504
1659027028476543000,2.89554296875,9.80817985534668,0.3122633695602417,-0.02153540402650833
1659027028486212900,2.905212890625,9.787840843200684,0.2919243574142456,-0.020338991656899452
1659027028495882500,2.914882568359375,9.79262638092041,0.3038884699344635,-0.02751746028661728
1659027028505552400,2.924552490234375,9.78664493560791,0.32542386651039124,-0.02632104977965355
1659027028515222000,2.934221923828125,9.791430473327637,0.30508488416671753,-0.04426721855998039
1659027028524892000,2.943891845703125,9.789037704467773,0.2883351147174835,-0.019142581149935722
1659027028534561500,2.9535615234375,9.783055305480957,0.28594231605529785,-0.02392822690308094
1659027028544231200,2.963231201171875,9.795019149780273,0.30149564146995544,-0.02273181453347206
1659027028553901000,2.972901123046875,9.811769485473633,0.3026920557022095,0.009571290574967861
1659027028563570700,2.98257080078125,9.830911636352539,0.3194418251514435,0.01196411345154047
1659027028573240600,2.992240478515625,9.824930191040039,0.3326023519039154,0.004785645287483931
1659027028582910200,3.00191015625,9.80937671661377,0.33499518036842346,0.007178467698395252
1659027028592579800,3.011579833984375,9.820143699645996,0.3409772217273712,0.016749758273363113
1659027028602249700,3.021249755859375,9.7998046875,0.3314059376716614,0.015553346835076809
1659027028611919400,3.03091943359375,9.797411918640137,0.3194418251514435,0.04307080805301666
1659027028621589000,3.040589111328125,9.791430473327637,0.3194418251514435,0.031106693670153618
1659027028631259000,3.0502587890625,9.77826976776123,0.2907279431819916,0.029910283163189888
1659027028640928500,3.059928466796875,9.762716293334961,0.29790642857551575,0.014356935396790504
1659027028650598400,3.069598388671875,9.78664493560791,0.2799602448940277,0.02153540402650833
1659027028660268000,3.07926806640625,9.7998046875,0.2907279431819916,0.029910283163189888
1659027028669937700,3.088937744140625,9.78544807434082,0.27756741642951965,0.01196411345154047
1659027028679607600,3.098607666015625,9.780662536621094,0.27038896083831787,0.004785645287483931
1659027028689277200,3.108277099609375,9.767501831054688,0.29431718587875366,0.007178467698395252
1659027028698947000,3.117947021484375,9.772287368774414,0.3074777126312256,-0.007178467698395252
1659027028708616700,3.12761669921875,9.791430473327637,0.32303106784820557,-0.003589233849197626
1659027028718286600,3.13728662109375,9.80219841003418,0.3170489966869354,-0.02153540402650833
1659027028727956200,3.146956298828125,9.826126098632812,0.3314059376716614,-0.02392822690308094
1659027028737625900,3.1566259765625,9.822537422180176,0.32662028074264526,-0.03469592705368996
1659027028747295700,3.166295654296875,9.82373332977295,0.32183465361595154,-0.031106693670153618
1659027028756965400,3.17596533203125,9.826126098632812,0.32183465361595154,-0.031106693670153618
1659027028766635300,3.18563525390625,9.803394317626953,0.30987054109573364,-0.02632104977965355
1659027028776305000,3.195304931640625,9.797411918640137,0.29312077164649963,-0.02632104977965355
1659027028785974500,3.204974609375,9.810572624206543,0.2991028428077698,-0.02392822690308094
1659027028795644400,3.21464453125,9.812965393066406,0.30149564146995544,-0.019142581149935722
1659027028805314000,3.22431396484375,9.80219841003418,0.30628129839897156,-0.010767702013254166
1659027028814983700,3.233983642578125,9.78544807434082,0.30628129839897156,-0.003589233849197626
1659027028824653600,3.243653564453125,9.803394317626953,0.3206382393836975,-0.004785645287483931
1659027028834323200,3.2533232421875,9.79262638092041,0.3278166949748993,-0.0011964113218709826
1659027028843993000,3.2629931640625,9.797411918640137,0.3086741268634796,-0.003589233849197626
1659027028853662700,3.272662841796875,9.790233612060547,0.30508488416671753,0.004785645287483931
1659027028863332600,3.28233251953125,9.78544807434082,0.31465616822242737,0.01196411345154047
1659027028873002200,3.292002197265625,9.805787086486816,0.3074777126312256,0.015553346835076809
1659027028882671900,3.301671875,9.834501266479492,0.3002992272377014,0.019142581149935722
1659027028892341800,3.311341796875,9.824930191040039,0.3026920557022095,0.014356935396790504
1659027028902011400,3.321011474609375,9.7998046875,0.3074777126312256,0.016749758273363113
1659027028911681300,3.330681396484375,9.77109146118164,0.3074777126312256,0.01196411345154047
1659027028921351000,3.340350830078125,9.775876998901367,0.30628129839897156,0.02153540402650833
1659027028931020500,3.3500205078125,9.757930755615234,0.30149564146995544,0.02392822690308094
1659027028940690400,3.3596904296875,9.789037704467773,0.28953152894973755,0.013160524889826775
1659027028950360000,3.369360107421875,9.7938232421875,0.2919243574142456,0.01196411345154047
1659027028960030000,3.379030029296875,9.797411918640137,0.2835494875907898,0.013160524889826775
1659027028969699600,3.388699462890625,9.80817985534668,0.3038884699344635,-0.005982056725770235
1659027028979369200,3.398369140625,9.803394317626953,0.31465616822242737,-0.0023928226437419653
1659027028989039000,3.4080390625,9.79262638092041,0.30508488416671753,-0.004785645287483931
1659027028998708700,3.417708740234375,9.791430473327637,0.30508488416671753,-0.005982056725770235
1659027029008378600,3.427378662109375,9.7998046875,0.3206382393836975,-0.014356935396790504
1659027029018048300,3.43704833984375,9.795019149780273,0.30628129839897156,-0.014356935396790504
1659027029027718100,3.44671826171875,9.804591178894043,0.33020952343940735,-0.009571290574967861
1659027029037387800,3.4563876953125,9.806983947753906,0.3122633695602417,-0.02273181453347206
1659027029047057400,3.466057373046875,9.828518867492676,0.3206382393836975,-0.02273181453347206
1659027029056727300,3.475727294921875,9.840482711791992,0.3242274820804596,-0.013160524889826775
1659027029066397000,3.48539697265625,9.846465110778809,0.32662028074264526,-0.02392822690308094
1659027029076066800,3.49506689453125,9.812965393066406,0.3206382393836975,-0.017946170642971992
1659027029085736400,3.504736328125,9.80100154876709,0.31345975399017334,-0.02392822690308094
1659027029095406000,3.514406005859375,9.790233612060547,0.3074777126312256,-0.031106693670153618
1659027029105076000,3.524075927734375,9.773484230041504,0.2919243574142456,-0.008374879136681557
1659027029114745600,3.53374560546875,9.751948356628418,0.29431718587875366,-0.013160524889826775
1659027029124415200,3.543415283203125,9.765109062194824,0.2955136001110077,-0.02153540402650833
1659027029134085000,3.553085205078125,9.80937671661377,0.29431718587875366,-0.005982056725770235
1659027029143754800,3.562754638671875,9.824930191040039,0.30508488416671753,0.008374879136681557
1659027029153424600,3.572424560546875,9.822537422180176,0.3038884699344635,0.014356935396790504
1659027029163094300,3.58209423828125,9.817750930786133,0.3002992272377014,0.0011964113218709826
1659027029172764200,3.59176416015625,9.79262638092041,0.31106695532798767,0.017946170642971992
1659027029182433800,3.601433837890625,9.787840843200684,0.30987054109573364,0.014356935396790504
1659027029192103700,3.611103759765625,9.787840843200684,0.30508488416671753,0.014356935396790504
1659027029201773300,3.620773193359375,9.791430473327637,0.3194418251514435,0.02153540402650833
1659027029211443000,3.63044287109375,9.80219841003418,0.32183465361595154,0.02273181453347206
1659027029221112800,3.64011279296875,9.824930191040039,0.32303106784820557,0.020338991656899452
1659027029230782500,3.649782470703125,9.811769485473633,0.30987054109573364,0.014356935396790504
1659027029240452000,3.6594521484375,9.76989459991455,0.2991028428077698,0.02632104977965355
1659027029250122000,3.6691220703125,9.77109146118164,0.2919243574142456,0.019142581149935722
1659027029259791600,3.67879150390625,9.810572624206543,0.2919243574142456,0.005982056725770235
1659027029269461500,3.68846142578125,9.839286804199219,0.30149564146995544,0.008374879136681557
1659027029279131100,3.698131103515625,9.814162254333496,0.32542386651039124,-0.005982056725770235
1659027029288801000,3.707801025390625,9.77707290649414,0.3194418251514435,-0.0023928226437419653
1659027029298470700,3.717470703125,9.772287368774414,0.31106695532798767,-0.016749758273363113
1659027029308140300,3.727140380859375,9.798608779907227,0.32183465361595154,-0.02273181453347206
1659027029317810200,3.73681005859375,9.844072341918945,0.30628129839897156,-0.016749758273363113
1659027029327479800,3.746479736328125,9.822537422180176,0.3002992272377014,-0.017946170642971992
1659027029337149700,3.756149658203125,9.817750930786133,0.3086741268634796,-0.02512463741004467
1659027029346819300,3.7658193359375,9.80817985534668,0.3086741268634796,-0.009571290574967861
1659027029356489200,3.7754892578125,9.804591178894043,0.30508488416671753,-0.007178467698395252
1659027029366158800,3.785158935546875,9.773484230041504,0.30628129839897156,-0.014356935396790504
1659027029375828500,3.794828369140625,9.773484230041504,0.3026920557022095,-0.004785645287483931
1659027029385498400,3.804498291015625,9.779465675354004,0.29312077164649963,0.0011964113218709826
1659027029395168000,3.81416796875,9.798608779907227,0.3074777126312256,0.010767702013254166
1659027029404838000,3.823837890625,9.803394317626953,0.28953152894973755,-0.003589233849197626
1659027029414507500,3.833507568359375,9.790233612060547,0.31465616822242737,0.02153540402650833
1659027029424177200,3.84317724609375,9.798608779907227,0.30149564146995544,0.02153540402650833
1659027029433847000,3.852846923828125,9.803394317626953,0.3194418251514435,0.039481572806835175
1659027029443517000,3.862516845703125,9.7938232421875,0.3170489966869354,0.02632104977965355
1659027029453186600,3.8721865234375,9.805787086486816,0.32183465361595154,0.017946170642971992
1659027029462856200,3.881856201171875,9.814162254333496,0.3242274820804596,0.004785645287483931
1659027029472526000,3.891526123046875,9.804591178894043,0.3074777126312256,0.015553346835076809
1659027029482195700,3.90119580078125,9.804591178894043,0.3158525824546814,-0.003589233849197626
1659027029491865300,3.910865234375,9.77826976776123,0.3170489966869354,-0.009571290574967861
1659027029501535200,3.92053515625,9.77707290649414,0.30508488416671753,-0.013160524889826775
1659027029511204900,3.930204833984375,9.795019149780273,0.2847459018230438,-0.015553346835076809
1659027029520874800,3.939874755859375,9.821340560913086,0.2907279431819916,-0.02392822690308094
1659027029530544400,3.94954443359375,9.80817985534668,0.28953152894973755,-0.02153540402650833
1659027029540214300,3.95921435546875,9.796216011047363,0.29431718587875366,-0.02632104977965355
1659027029549884000,3.9688837890625,9.779465675354004,0.28953152894973755,-0.02751746028661728
1659027029559553800,3.9785537109375,9.762716293334961,0.3026920557022095,-0.02632104977965355
1659027029569223400,3.988223388671875,9.775876998901367,0.3206382393836975,-0.020338991656899452
1659027029578893000,3.99789306640625,9.803394317626953,0.3314059376716614,-0.015553346835076809
1659027029588563000,4.00756298828125,9.821340560913086,0.31345975399017334,-0.009571290574967861
1659027029598232600,4.017232666015625,9.845269203186035,0.3242274820804596,-0.007178467698395252
1659027029607902200,4.026902099609375,9.847661972045898,0.3194418251514435,0.009571290574967861
1659027029617572000,4.036572021484375,9.796216011047363,0.3158525824546814,0.009571290574967861
1659027029627241700,4.04624169921875,9.780662536621094,0.3194418251514435,0.013160524889826775
1659027029636911600,4.05591162109375,9.78664493560791,0.3194418251514435,0.014356935396790504
1659027029646581200,4.065581298828125,9.78664493560791,0.29790642857551575,0.0011964113218709826
1659027029656251100,4.075251220703125,9.784252166748047,0.31345975399017334,0.017946170642971992
1659027029665920800,4.084920654296875,9.784252166748047,0.2967100143432617,0.009571290574967861
1659027029675590700,4.094590576171875,9.78544807434082,0.30149564146995544,0.005982056725770235
1659027029685260300,4.10426025390625,9.779465675354004,0.3122633695602417,0.008374879136681557
1659027029694930000,4.113929931640625,9.7998046875,0.29431718587875366,0.020338991656899452
1659027029704599800,4.123599853515625,9.765109062194824,0.3002992272377014,0.008374879136681557
1659027029714269400,4.13326953125,9.783055305480957,0.30628129839897156,0.010767702013254166
1659027029723939300,4.142939208984375,9.790233612060547,0.30149564146995544,0.005982056725770235
1659027029733609000,4.15260888671875,9.822537422180176,0.31345975399017334,0.010767702013254166
1659027029743278600,4.162278564453125,9.789037704467773,0.3122633695602417,0.003589233849197626
1659027029752948500,4.171948486328125,9.77109146118164,0.3170489966869354,-0.010767702013254166
1659027029762618000,4.1816181640625,9.81655502319336,0.31106695532798767,0.0011964113218709826
1659027029772288000,4.1912880859375,9.844072341918945,0.31345975399017334,-0.009571290574967861
1659027029781957600,4.20095751953125,9.818947792053223,0.2955136001110077,-0.014356935396790504
1659027029791627500,4.21062744140625,9.783055305480957,0.3002992272377014,-0.014356935396790504
1659027029801297200,4.220297119140625,9.773484230041504,0.3002992272377014,-0.02153540402650833
1659027029810966800,4.229966796875,9.805787086486816,0.2883351147174835,-0.02392822690308094
1659027029820636700,4.23963671875,9.817750930786133,0.30508488416671753,-0.02392822690308094
1659027029830306300,4.249306396484375,9.78664493560791,0.2955136001110077,-0.019142581149935722
1659027029839976200,4.25897607421875,9.766305923461914,0.29431718587875366,-0.017946170642971992
1659027029849645800,4.268645751953125,9.775876998901367,0.30149564146995544,-0.02153540402650833
1659027029859315700,4.278315673828125,9.79262638092041,0.3086741268634796,-0.015553346835076809
1659027029868985300,4.2879853515625,9.805787086486816,0.29312077164649963,-0.004785645287483931
1659027029878655200,4.2976552734375,9.830911636352539,0.3002992272377014,-0.0011964113218709826
1659027029888324900,4.307324951171875,9.80817985534668,0.3158525824546814,0.009571290574967861
1659027029897994500,4.316994384765625,9.828518867492676,0.3314059376716614,0.0023928226437419653
1659027029907664400,4.326664306640625,9.821340560913086,0.3290131092071533,0.0023928226437419653
1659027029917334000,4.336333984375,9.82373332977295,0.3170489966869354,0.015553346835076809
1659027029927004000,4.34600390625,9.803394317626953,0.3326023519039154,0.01196411345154047
1659027029936673500,4.355673583984375,9.80100154876709,0.32542386651039124,0.02273181453347206
1659027029946343400,4.365343505859375,9.7998046875,0.3194418251514435,0.029910283163189888
1659027029956013000,4.375012939453125,9.78544807434082,0.30987054109573364,0.02751746028661728
1659027029965683000,4.384682861328125,9.76391315460205,0.29312077164649963,0.019142581149935722
1659027029975352600,4.3943525390625,9.743574142456055,0.27756741642951965,0.019142581149935722
1659027029985022200,4.404022216796875,9.780662536621094,0.28115665912628174,0.014356935396790504
1659027029994692000,4.413692138671875,9.810572624206543,0.28953152894973755,-0.005982056725770235
1659027030004361700,4.42336181640625,9.811769485473633,0.29790642857551575,0.007178467698395252
1659027030014031600,4.433031494140625,9.7938232421875,0.2883351147174835,-0.004785645287483931
1659027030023701200,4.442701171875,9.81535816192627,0.3170489966869354,-0.01196411345154047
1659027030033371000,4.452370849609375,9.822537422180176,0.3206382393836975,-0.01196411345154047
1659027030043040800,4.462040771484375,9.80100154876709,0.33499518036842346,-0.003589233849197626
1659027030052710400,4.47171044921875,9.7938232421875,0.33379876613616943,-0.02392822690308094
1659027030062380300,4.48138037109375,9.803394317626953,0.32183465361595154,-0.020338991656899452
1659027030072050000,4.4910498046875,9.832108497619629,0.32303106784820557,-0.02632104977965355
1659027030081719800,4.5007197265625,9.817750930786133,0.3242274820804596,-0.02632104977965355
1659027030091389400,4.510389404296875,9.811769485473633,0.31824541091918945,-0.016749758273363113
1659027030101059000,4.52005908203125,9.787840843200684,0.3158525824546814,-0.014356935396790504
1659027030110729000,4.52972900390625,9.78664493560791,0.3026920557022095,-0.005982056725770235
1659027030120398600,4.539398681640625,9.77109146118164,0.28953152894973755,-0.016749758273363113
1659027030130068500,4.549068359375,9.783055305480957,0.30508488416671753,0.0023928226437419653
1659027030139738000,4.558738037109375,9.79262638092041,0.29312077164649963,-0.013160524889826775
1659027030149408000,4.568407958984375,9.7938232421875,0.29431718587875366,0.004785645287483931
1659027030159077600,4.57807763671875,9.77826976776123,0.3026920557022095,0.007178467698395252
1659027030168747500,4.58774755859375,9.80219841003418,0.32303106784820557,0.015553346835076809
1659027030178417200,4.597417236328125,9.781859397888184,0.3122633695602417,0.020338991656899452
1659027030188086800,4.607086669921875,9.827322959899902,0.3206382393836975,0.005982056725770235
1659027030197756700,4.616756591796875,9.805787086486816,0.3074777126312256,0.015553346835076809
1659027030207426300,4.62642626953125,9.80817985534668,0.32542386651039124,0.004785645287483931
1659027030217096200,4.63609619140625,9.806983947753906,0.3170489966869354,0.008374879136681557
1659027030226765800,4.645765869140625,9.797411918640137,0.3170489966869354,0.008374879136681557
1659027030236435700,4.655435791015625,9.797411918640137,0.30628129839897156,-0.0023928226437419653
1659027030246105300,4.665105224609375,9.78544807434082,0.3002992272377014,-0.0023928226437419653
1659027030255775200,4.674775146484375,9.787840843200684,0.2847459018230438,-0.007178467698395252
1659027030265444900,4.68444482421875,9.789037704467773,0.2883351147174835,-0.004785645287483931
1659027030275114500,4.694114501953125,9.806983947753906,0.2919243574142456,-0.003589233849197626
1659027030284784400,4.703784423828125,9.7998046875,0.28953152894973755,-0.009571290574967861
1659027030294454000,4.7134541015625,9.798608779907227,0.3038884699344635,-0.02392822690308094
1659027030304124000,4.7231240234375,9.783055305480957,0.31106695532798767,-0.0011964113218709826
1659027030313793500,4.73279345703125,9.790233612060547,0.3158525824546814,0.0023928226437419653
1659027030323463400,4.74246337890625,9.81535816192627,0.3242274820804596,-0.0011964113218709826
1659027030333133000,4.752133056640625,9.810572624206543,0.3314059376716614,0.0011964113218709826
1659027030342803000,4.761802978515625,9.820143699645996,0.3290131092071533,-0.003589233849197626
1659027030352472600,4.77147265625,9.818947792053223,0.33020952343940735,0.004785645287483931
1659027030362142200,4.78114208984375,9.810572624206543,0.3206382393836975,0.005982056725770235
1659027030371812000,4.79081201171875,9.80817985534668,0.33020952343940735,0.005982056725770235
1659027030381481700,4.800481689453125,9.80219841003418,0.3158525824546814,0.005982056725770235
1659027030391151600,4.810151611328125,9.790233612060547,0.29312077164649963,0.004785645287483931
1659027030400821200,4.8198212890625,9.77826976776123,0.3026920557022095,0.0023928226437419653
1659027030410491100,4.8294912109375,9.775876998901367,0.2835494875907898,0.004785645287483931
1659027030420160800,4.839160888671875,9.783055305480957,0.28235307335853577,0.0011964113218709826
1659027030429830700,4.84883056640625,9.774680137634277,0.2991028428077698,-0.0011964113218709826
1659027030439500300,4.858500244140625,9.77826976776123,0.3038884699344635,0.005982056725770235
1659027030449170000,4.868169921875,9.795019149780273,0.30149564146995544,0.0011964113218709826
1659027030458839800,4.87783984375,9.7998046875,0.30508488416671753,0.0011964113218709826
1659027030468509400,4.887509521484375,9.817750930786133,0.31106695532798767,-0.0011964113218709826
1659027030478179300,4.897179443359375,9.803394317626953,0.31345975399017334,-0.003589233849197626
1659027030487849000,4.906848876953125,9.796216011047363,0.32183465361595154,-0.003589233849197626
1659027030497518800,4.916518798828125,9.798608779907227,0.3122633695602417,-0.003589233849197626
1659027030507188500,4.9261884765625,9.806983947753906,0.31106695532798767,-0.0023928226437419653
1659027030516858400,4.9358583984375,9.812965393066406,0.30508488416671753,0.015553346835076809
1659027030526528000,4.945528076171875,9.80817985534668,0.2967100143432617,-0.004785645287483931
1659027030536197600,4.95519775390625,9.805787086486816,0.3086741268634796,0.0023928226437419653
1659027030545867500,4.964867431640625,9.790233612060547,0.30149564146995544,-0.013160524889826775
1659027030555537200,4.974537109375,9.787840843200684,0.3002992272377014,0.008374879136681557
1659027030565207000,4.98420703125,9.795019149780273,0.29790642857551575,-0.007178467698395252
1659027030574876700,4.993876708984375,9.7998046875,0.29790642857551575,-0.007178467698395252
1659027030584546600,5.003546630859375,9.7938232421875,0.31106695532798767,-0.003589233849197626
1659027030594216200,5.01321630859375,9.787840843200684,0.31465616822242737,0.0011964113218709826
1659027030603886000,5.022885986328125,9.797411918640137,0.29431718587875366,-0.003589233849197626
1659027030613555700,5.0325556640625,9.795019149780273,0.2955136001110077,-0.005982056725770235
1659027030623225300,5.042225341796875,9.79262638092041,0.30628129839897156,-0.008374879136681557
1659027030632895200,5.051895263671875,9.795019149780273,0.31345975399017334,-0.0011964113218709826
1659027030642564900,5.06156494140625,9.78544807434082,0.3086741268634796,-0.005982056725770235
1659027030652234800,5.07123486328125,9.812965393066406,0.2919243574142456,-0.013160524889826775
1659027030661904600,5.080904541015625,9.7998046875,0.31345975399017334,0.007178467698395252
1659027030671574300,5.09057421875,9.795019149780273,0.30628129839897156,0.010767702013254166
1659027030681244000,5.100243896484375,9.775876998901367,0.29431718587875366,0.0023928226437419653
1659027030690913800,5.109913818359375,9.781859397888184,0.30628129839897156,-0.004785645287483931
1659027030700583400,5.11958349609375,9.791430473327637,0.3074777126312256,-0.0023928226437419653
1659027030710253000,5.129253173828125,9.79262638092041,0.2907279431819916,-0.004785645287483931
1659027030719923000,5.1389228515625,9.80219841003418,0.31345975399017334,0.01196411345154047
1659027030729592800,5.1485927734375,9.805787086486816,0.3002992272377014,0.009571290574967861
1659027030739262500,5.158262451171875,9.791430473327637,0.3038884699344635,0.003589233849197626
1659027030748932000,5.16793212890625,9.7998046875,0.3086741268634796,0.0011964113218709826
1659027030758602000,5.17760205078125,9.798608779907227,0.30987054109573364,-0.005982056725770235
1659027030768271600,5.187271728515625,9.80937671661377,0.3122633695602417,0.0011964113218709826
1659027030777941500,5.19694140625,9.80219841003418,0.2967100143432617,-0.004785645287483931
1659027030787611100,5.206611083984375,9.804591178894043,0.3086741268634796,0
1659027030797281000,5.216281005859375,9.791430473327637,0.3086741268634796,0.005982056725770235
1659027030806950700,5.22595068359375,9.7938232421875,0.30508488416671753,-0.014356935396790504
1659027030816620500,5.23562060546875,9.80219841003418,0.29790642857551575,-0.005982056725770235
1659027030826290200,5.245290283203125,9.796216011047363,0.3038884699344635,-0.005982056725770235
1659027030835959800,5.254959716796875,9.783055305480957,0.30508488416671753,-0.014356935396790504
1659027030845629700,5.264629638671875,9.789037704467773,0.3122633695602417,0.003589233849197626
1659027030855299300,5.27429931640625,9.80219841003418,0.30508488416671753,-0.0023928226437419653
1659027030864969200,5.28396923828125,9.790233612060547,0.3122633695602417,0
1659027030874638800,5.293638916015625,9.80100154876709,0.30508488416671753,-0.016749758273363113
1659027030884308700,5.303308837890625,9.796216011047363,0.30508488416671753,-0.020338991656899452
1659027030893978400,5.312978271484375,9.80219841003418,0.2967100143432617,-0.015553346835076809
1659027030903648300,5.322648193359375,9.795019149780273,0.30987054109573364,-0.004785645287483931
1659027030913318000,5.33231787109375,9.7998046875,0.31345975399017334,0.0023928226437419653
1659027030922987500,5.341987548828125,9.804591178894043,0.29790642857551575,0.009571290574967861
1659027030932657400,5.351657470703125,9.804591178894043,0.30508488416671753,0.0011964113218709826
1659027030942327000,5.3613271484375,9.7938232421875,0.3158525824546814,0.0023928226437419653
1659027030951997000,5.370996826171875,9.803394317626953,0.31824541091918945,0.010767702013254166
1659027030961666800,5.380666748046875,9.804591178894043,0.3122633695602417,-0.0011964113218709826
1659027030971336400,5.39033642578125,9.80219841003418,0.3290131092071533,0.004785645287483931
1659027030981006000,5.400006103515625,9.796216011047363,0.30987054109573364,0.017946170642971992
1659027030990676000,5.409676025390625,9.79262638092041,0.30508488416671753,0.0011964113218709826
1659027031000345600,5.419345703125,9.790233612060547,0.29312077164649963,0.005982056725770235
1659027031010015200,5.42901513671875,9.791430473327637,0.2991028428077698,0
1659027031019685000,5.43868505859375,9.795019149780273,0.28594231605529785,0.0011964113218709826
1659027031029355000,5.44835498046875,9.79262638092041,0.2907279431819916,-0.016749758273363113
1659027031039024600,5.458024658203125,9.810572624206543,0.2907279431819916,-0.016749758273363113
1659027031048694500,5.467694580078125,9.7938232421875,0.3038884699344635,-0.004785645287483931
1659027031058364200,5.4773642578125,9.80100154876709,0.3086741268634796,-0.005982056725770235
1659027031068033800,5.48703369140625,9.803394317626953,0.3194418251514435,-0.0011964113218709826
1659027031077703700,5.49670361328125,9.814162254333496,0.3122633695602417,-0.0023928226437419653
1659027031087373300,5.506373291015625,9.80100154876709,0.30987054109573364,-0.009571290574967861
1659027031097043200,5.516043212890625,9.827322959899902,0.31345975399017334,-0.009571290574967861
1659027031106712800,5.525712890625,9.827322959899902,0.31106695532798767,-0.003589233849197626
1659027031116382700,5.5353828125,9.829715728759766,0.32303106784820557,-0.016749758273363113
1659027031126052400,5.54505224609375,9.779465675354004,0.31465616822242737,-0.02153540402650833
1659027031135722200,5.55472216796875,9.76391315460205,0.30628129839897156,-0.017946170642971992
1659027031145391900,5.564391845703125,9.757930755615234,0.3002992272377014,-0.01196411345154047
1659027031155061500,5.5740615234375,9.76989459991455,0.2871387302875519,-0.003589233849197626
1659027031164731400,5.5837314453125,9.773484230041504,0.2919243574142456,-0.01196411345154047
1659027031174401000,5.593401123046875,9.77826976776123,0.2919243574142456,-0.0023928226437419653
1659027031184071000,5.60307080078125,9.797411918640137,0.2871387302875519,0.005982056725770235
1659027031193740500,5.612740478515625,9.81535816192627,0.2955136001110077,0.004785645287483931
1659027031203410400,5.622410400390625,9.80937671661377,0.30149564146995544,-0.008374879136681557
1659027031213080000,5.632080078125,9.783055305480957,0.30508488416671753,-0.003589233849197626
1659027031222750000,5.64175,9.765109062194824,0.30987054109573364,0.008374879136681557
1659027031232419600,5.651419677734375,9.77826976776123,0.3122633695602417,-0.0023928226437419653
1659027031242089500,5.66108935546875,9.78664493560791,0.32183465361595154,0.007178467698395252
1659027031251759000,5.670759033203125,9.805787086486816,0.3074777126312256,0.014356935396790504
1659027031261429000,5.680428955078125,9.810572624206543,0.32303106784820557,0.016749758273363113
1659027031271098600,5.6900986328125,9.810572624206543,0.3194418251514435,0.017946170642971992
1659027031280768300,5.699768310546875,9.791430473327637,0.3002992272377014,0.02392822690308094
1659027031290438100,5.709438232421875,9.774680137634277,0.29312077164649963,0.02632104977965355
1659027031300107800,5.719107666015625,9.753145217895508,0.2799602448940277,0.015553346835076809
1659027031309777700,5.728777587890625,9.749555587768555,0.28953152894973755,0.02273181453347206
1659027031319447600,5.738447509765625,9.768698692321777,0.2787638306617737,0.01196411345154047
1659027031329117200,5.7481171875,9.711270332336426,0.28594231605529785,0.019142581149935722
1659027031338786800,5.757786865234375,9.780662536621094,0.28235307335853577,0.01196411345154047
1659027031348456700,5.767456787109375,9.730413436889648,0.275174617767334,0.02392822690308094
1659027031358126300,5.777126220703125,9.806983947753906,0.2907279431819916,0.003589233849197626
1659027031367796000,5.7867958984375,9.866804122924805,0.31345975399017334,0.017946170642971992
1659027031377465900,5.7964658203125,10.00439167022705,0.3409772217273712,0.007178467698395252
1659027031387135700,5.8061357421875,9.973284721374512,0.3720839321613312,0.01196411345154047
1659027031396805400,5.815805419921875,9.860821723937988,0.38763725757598877,0.005982056725770235
1659027031406475300,5.825475341796875,9.665806770324707,0.35413774847984314,-0.005982056725770235
1659027031416145000,5.835144775390625,9.744770050048828,0.33738797903060913,-0.015553346835076809
1659027031425814500,5.844814453125,9.80219841003418,0.2871387302875519,-0.038285162299871445
1659027031435484400,5.854484375,9.839286804199219,0.26919254660606384,-0.04187439754605293
1659027031445154000,5.864154052734375,9.862018585205078,0.2727817893028259,-0.02751746028661728
1659027031454824000,5.873823974609375,9.76391315460205,0.25363919138908386,-0.040677983313798904
1659027031464493600,5.88349365234375,9.656235694885254,0.23688943684101105,-0.008374879136681557
1659027031474163500,5.89316357421875,9.712467193603516,0.24885354936122894,-0.019142581149935722
1659027031483833000,5.9028330078125,9.774680137634277,0.27397820353507996,-0.013160524889826775
1659027031493502700,5.912502685546875,9.76989459991455,0.2847459018230438,-0.020338991656899452
1659027031503172600,5.922172607421875,9.79262638092041,0.3074777126312256,-0.02273181453347206
1659027031512842500,5.931842529296875,9.841679573059082,0.3565305769443512,-0.014356935396790504
1659027031522512100,5.94151220703125,9.781859397888184,0.39122650027275085,0
1659027031532182000,5.95118212890625,9.891928672790527,0.3720839321613312,-0.005982056725770235
1659027031541851600,5.9608515625,9.829715728759766,0.33379876613616943,-0.02153540402650833
1659027031551521300,5.970521240234375,9.90269660949707,0.31345975399017334,-0.014356935396790504
1659027031561191200,5.980191162109375,9.818947792053223,0.3038884699344635,-0.0011964113218709826
1659027031570860800,5.98986083984375,9.804591178894043,0.2907279431819916,-0.0011964113218709826
1659027031580530700,5.99953076171875,9.705288887023926,0.2835494875907898,0.007178467698395252
1659027031590200300,6.009200439453125,9.65503978729248,0.26560330390930176,0.007178467698395252
1659027031599870200,6.0188701171875,9.68375301361084,0.27038896083831787,0.009571290574967861
1659027031609539800,6.028539794921875,9.787840843200684,0.26201409101486206,0.016749758273363113
1659027031619209700,6.038209716796875,9.803394317626953,0.2727817893028259,0.01196411345154047
1659027031628879400,6.04787939453125,9.821340560913086,0.28594231605529785,0.02512463741004467
1659027031638549000,6.057549072265625,9.80100154876709,0.2991028428077698,0.05503492057323456
1659027031648219000,6.067218994140625,9.811769485473633,0.3170489966869354,0.04546362906694412
1659027031657888800,6.076888671875,9.81655502319336,0.34576287865638733,0.040677983313798904
1659027031667558400,6.086558349609375,9.80817985534668,0.3445664644241333,0.029910283163189888
1659027031677228000,6.09622802734375,9.827322959899902,0.35892340540885925,0.013160524889826775
1659027031686898000,6.10589794921875,9.859625816345215,0.35054850578308105,0.015553346835076809
1659027031696567600,6.115567626953125,9.878767967224121,0.3290131092071533,0.017946170642971992
1659027031706237400,6.125237548828125,9.824930191040039,0.32183465361595154,0.007178467698395252
1659027031715907000,6.134906982421875,9.753145217895508,0.27756741642951965,-0.007178467698395252
1659027031725577000,6.144576904296875,9.728020668029785,0.2727817893028259,-0.01196411345154047
1659027031735246600,6.15424658203125,9.762716293334961,0.2763710021972656,-0.013160524889826775
1659027031744916500,6.16391650390625,9.773484230041504,0.27756741642951965,-0.01196411345154047
1659027031754586000,6.173586181640625,9.7938232421875,0.2667997181415558,-0.02273181453347206
1659027031764255700,6.183255859375,9.765109062194824,0.27397820353507996,-0.02751746028661728
1659027031773925600,6.192925537109375,9.772287368774414,0.2835494875907898,-0.02392822690308094
1659027031783595500,6.202595458984375,9.811769485473633,0.31824541091918945,-0.02153540402650833
1659027031793265200,6.21226513671875,9.852447509765625,0.3397808074951172,-0.009571290574967861
1659027031802935000,6.22193505859375,9.91107177734375,0.37926238775253296,-0.0011964113218709826
1659027031812604700,6.231604736328125,9.844072341918945,0.36729827523231506,0.013160524889826775
1659027031822274300,6.2412744140625,9.751948356628418,0.3361915946006775,0.005982056725770235
1659027031831944200,6.250944091796875,9.714859962463379,0.31106695532798767,-0.005982056725770235
1659027031841613800,6.26061376953125,9.77707290649414,0.2919243574142456,-0.0011964113218709826
1659027031851283700,6.27028369140625,9.835697174072266,0.28235307335853577,0
1659027031860953300,6.279953369140625,9.844072341918945,0.275174617767334,0.0023928226437419653
1659027031870623200,6.289623291015625,9.820143699645996,0.2799602448940277,0.016749758273363113
1659027031880292900,6.29929296875,9.734002113342285,0.28115665912628174,0.004785645287483931
1659027031889962800,6.308962646484375,9.68375301361084,0.2727817893028259,-0.004785645287483931
1659027031899632400,6.31863232421875,9.765109062194824,0.29431718587875366,0.010767702013254166
1659027031909302300,6.32830224609375,9.81535816192627,0.3002992272377014,0.019142581149935722
1659027031918972000,6.337971923828125,9.814162254333496,0.31106695532798767,0.016749758273363113
1659027031928641800,6.347641845703125,9.821340560913086,0.33020952343940735,0.010767702013254166
1659027031938311400,6.3573115234375,9.822537422180176,0.33379876613616943,0.02751746028661728
1659027031947981000,6.36698095703125,9.826126098632812,0.3278166949748993,0.015553346835076809
1659027031957651000,6.37665087890625,9.82373332977295,0.3086741268634796,0.02273181453347206
1659027031967320600,6.386320556640625,9.787840843200684,0.29312077164649963,0.009571290574967861
1659027031976990500,6.395990478515625,9.781859397888184,0.30987054109573364,0.02392822690308094
1659027031986660400,6.405660400390625,9.806983947753906,0.2991028428077698,0.01196411345154047
1659027031996330000,6.415330078125,9.80937671661377,0.28235307335853577,-0.007178467698395252
1659027032005999600,6.42499951171875,9.761520385742188,0.2871387302875519,0.0023928226437419653
1659027032015669500,6.43466943359375,9.747162818908691,0.29431718587875366,0.003589233849197626
1659027032025339100,6.444339111328125,9.773484230041504,0.2967100143432617,0.003589233849197626
1659027032035009000,6.454009033203125,9.797411918640137,0.2991028428077698,0.0011964113218709826
1659027032044678700,6.4636787109375,9.80937671661377,0.29431718587875366,0.008374879136681557
1659027032054348500,6.4733486328125,9.811769485473633,0.3026920557022095,0.007178467698395252
1659027032064018200,6.48301806640625,9.80937671661377,0.3086741268634796,-0.010767702013254166
1659027032073688000,6.49268798828125,9.796216011047363,0.3158525824546814,-0.017946170642971992
1659027032083357700,6.502357666015625,9.81535816192627,0.31824541091918945,-0.014356935396790504
1659027032093027600,6.512027587890625,9.832108497619629,0.31824541091918945,-0.015553346835076809
1659027032102697200,6.521697265625,9.804591178894043,0.3074777126312256,-0.02871387079358101
1659027032112367000,6.5313671875,9.811769485473633,0.3038884699344635,-0.016749758273363113
1659027032122036700,6.54103662109375,9.80100154876709,0.3026920557022095,-0.02153540402650833
1659027032131706400,6.550706298828125,9.783055305480957,0.3074777126312256,-0.02153540402650833
1659027032141376300,6.560376220703125,9.817750930786133,0.3086741268634796,0.0023928226437419653
1659027032151046000,6.5700458984375,9.822537422180176,0.29431718587875366,-0.010767702013254166
1659027032160715800,6.5797158203125,9.812965393066406,0.28953152894973755,-0.016749758273363113
1659027032170385700,6.5893857421875,9.790233612060547,0.3194418251514435,-0.017946170642971992
1659027032180055300,6.59905517578125,9.796216011047363,0.2955136001110077,-0.009571290574967861
1659027032189725000,6.608724853515625,9.824930191040039,0.31106695532798767,-0.015553346835076809
1659027032199394800,6.618394775390625,9.80219841003418,0.31345975399017334,-0.010767702013254166
1659027032209064400,6.628064453125,9.779465675354004,0.3170489966869354,-0.007178467698395252
1659027032218734300,6.637734375,9.795019149780273,0.31345975399017334,-0.007178467698395252
1659027032228404000,6.647404052734375,9.806983947753906,0.30987054109573364,0.003589233849197626
1659027032238073900,6.657073974609375,9.81535816192627,0.31106695532798767,0.003589233849197626
1659027032247743500,6.666743408203125,9.795019149780273,0.32183465361595154,0.010767702013254166
1659027032257413400,6.676413330078125,9.754341125488281,0.3074777126312256,0.01196411345154047
1659027032267083000,6.6860830078125,9.775876998901367,0.2991028428077698,0.017946170642971992
1659027032276753000,6.6957529296875,9.76989459991455,0.29790642857551575,0.010767702013254166
1659027032286422500,6.705422607421875,9.795019149780273,0.29431718587875366,0.008374879136681557
1659027032296092400,6.715092529296875,9.77826976776123,0.3038884699344635,0.02392822690308094
1659027032305762000,6.724761962890625,9.768698692321777,0.2763710021972656,0.02871387079358101
1659027032315431700,6.734431640625,9.768698692321777,0.2787638306617737,0.02632104977965355
1659027032325101600,6.7441015625,9.784252166748047,0.2907279431819916,0.02273181453347206
1659027032334771200,6.753771240234375,9.795019149780273,0.3074777126312256,0.02632104977965355
1659027032344441000,6.763441162109375,9.795019149780273,0.3026920557022095,0.02512463741004467
1659027032354111000,6.773111083984375,9.817750930786133,0.3074777126312256,0.01196411345154047
1659027032363780600,6.782780517578125,9.826126098632812,0.30987054109573364,0.020338991656899452
1659027032373450200,6.7924501953125,9.818947792053223,0.3038884699344635,0
1659027032383120100,6.8021201171875,9.811769485473633,0.30987054109573364,0.004785645287483931
1659027032392789800,6.811789794921875,9.806983947753906,0.3194418251514435,0.008374879136681557
1659027032402459600,6.821459716796875,9.814162254333496,0.31465616822242737,0.0023928226437419653
1659027032412129500,6.831129638671875,9.804591178894043,0.3242274820804596,-0.017946170642971992
1659027032421799200,6.840799072265625,9.797411918640137,0.29312077164649963,-0.02273181453347206
1659027032431468800,6.85046875,9.79262638092041,0.2991028428077698,-0.037088751792907715
1659027032441138700,6.860138671875,9.79262638092041,0.30149564146995544,-0.04187439754605293
1659027032450808300,6.869808349609375,9.780662536621094,0.3038884699344635,-0.04905286431312561
1659027032460478200,6.879478271484375,9.791430473327637,0.2883351147174835,-0.0323031060397625
1659027032470147800,6.88914794921875,9.7938232421875,0.29312077164649963,-0.0323031060397625
1659027032479817700,6.898817626953125,9.81655502319336,0.30149564146995544,-0.02392822690308094
1659027032489487400,6.9084873046875,9.82373332977295,0.31106695532798767,-0.037088751792907715
1659027032499157000,6.918156982421875,9.845269203186035,0.3278166949748993,-0.029910283163189888
1659027032508827000,6.927826904296875,9.840482711791992,0.3074777126312256,-0.02153540402650833
1659027032518496800,6.937496826171875,9.81655502319336,0.3278166949748993,-0.017946170642971992
1659027032528166400,6.94716650390625,9.791430473327637,0.32183465361595154,0.003589233849197626
1659027032537836300,6.956836181640625,9.787840843200684,0.3122633695602417,0.003589233849197626
1659027032547506000,6.966505859375,9.791430473327637,0.31345975399017334,0.010767702013254166
1659027032557175600,6.976175537109375,9.766305923461914,0.30987054109573364,-0.003589233849197626
1659027032566845400,6.985845458984375,9.749555587768555,0.2871387302875519,0.014356935396790504
1659027032576515000,6.99551513671875,9.738788604736328,0.29312077164649963,0.031106693670153618
1659027032586185000,7.00518505859375,9.755537986755371,0.27038896083831787,0.02871387079358101
1659027032595854800,7.014854736328125,9.766305923461914,0.2715853750705719,0.039481572806835175
1659027032605524500,7.0245244140625,9.781859397888184,0.2763710021972656,0.02632104977965355
1659027032615194000,7.034194091796875,9.80100154876709,0.2907279431819916,0.029910283163189888
1659027032624864000,7.043864013671875,9.822537422180176,0.30149564146995544,0.04426721855998039
1659027032634533600,7.05353369140625,9.822537422180176,0.31824541091918945,0.04187439754605293
1659027032644203500,7.06320361328125,9.80937671661377,0.3326023519039154,0.02632104977965355
1659027032653873200,7.072873046875,9.779465675354004,0.33738797903060913,0.03469592705368996
1659027032663543000,7.08254296875,9.790233612060547,0.3206382393836975,0.019142581149935722
1659027032673212700,7.092212646484375,9.82373332977295,0.31345975399017334,0.010767702013254166
1659027032682882600,7.101882568359375,9.805787086486816,0.3122633695602417,0.004785645287483931
1659027032692552200,7.11155224609375,9.80817985534668,0.29431718587875366,-0.008374879136681557
1659027032702222000,7.12122216796875,9.80100154876709,0.28953152894973755,-0.02273181453347206
1659027032711891700,7.1308916015625,9.79262638092041,0.2883351147174835,-0.031106693670153618
1659027032721561600,7.1405615234375,9.79262638092041,0.28115665912628174,-0.02273181453347206
1659027032731231200,7.150231201171875,9.783055305480957,0.28115665912628174,-0.02392822690308094
1659027032740900900,7.15990087890625,9.787840843200684,0.30149564146995544,-0.02512463741004467
1659027032750570800,7.16957080078125,9.7998046875,0.30987054109573364,-0.019142581149935722
1659027032760240600,7.17924072265625,9.817750930786133,0.3158525824546814,-0.01196411345154047
1659027032769910300,7.18891015625,9.804591178894043,0.3074777126312256,-0.0323031060397625
1659027032779580200,7.198580078125,9.811769485473633,0.3038884699344635,-0.02871387079358101
1659027032789249800,7.208249755859375,9.818947792053223,0.3170489966869354,-0.02871387079358101
1659027032798919400,7.21791943359375,9.829715728759766,0.3122633695602417,-0.0323031060397625
1659027032808589300,7.22758935546875,9.804591178894043,0.3086741268634796,-0.020338991656899452
1659027032818259200,7.23725927734375,9.783055305480957,0.29790642857551575,-0.015553346835076809
1659027032827928800,7.2469287109375,9.772287368774414,0.2967100143432617,-0.013160524889826775
1659027032837598500,7.256598388671875,9.772287368774414,0.2883351147174835,-0.0011964113218709826
1659027032847268400,7.266268310546875,9.789037704467773,0.2835494875907898,0.003589233849197626
1659027032856938000,7.27593798828125,9.772287368774414,0.2835494875907898,0.02392822690308094
1659027032866607900,7.28560791015625,9.77826976776123,0.2835494875907898,0.02392822690308094
1659027032876277800,7.29527783203125,9.7938232421875,0.2715853750705719,0.031106693670153618
1659027032885947400,7.304947509765625,9.796216011047363,0.2883351147174835,0.04785645380616188
1659027032895617000,7.314616943359375,9.80817985534668,0.29431718587875366,0.04666004329919815
1659027032905287000,7.324286865234375,9.795019149780273,0.30987054109573364,0.058624155819416046
1659027032914956500,7.33395654296875,9.798608779907227,0.3038884699344635,0.038285162299871445
1659027032924626400,7.34362646484375,9.77707290649414,0.3074777126312256,0.038285162299871445
1659027032934296000,7.353296142578125,9.78664493560791,0.3170489966869354,0.037088751792907715
1659027032943966000,7.362966064453125,9.780662536621094,0.3026920557022095,0.02751746028661728
1659027032953635600,7.372635498046875,9.790233612060547,0.2919243574142456,0.017946170642971992
1659027032963305500,7.382305419921875,9.80937671661377,0.31465616822242737,0.004785645287483931
1659027032972975000,7.39197509765625,9.811769485473633,0.3038884699344635,-0.0023928226437419653
1659027032982645000,7.40164501953125,9.8871431350708,0.31465616822242737,-0.009571290574967861
1659027032992314600,7.411314697265625,9.854840278625488,0.3170489966869354,-0.02273181453347206
1659027033001984500,7.420984619140625,9.791430473327637,0.3122633695602417,-0.015553346835076809
1659027033011654100,7.430654052734375,9.750752449035645,0.3206382393836975,-0.04546362906694412
1659027033021323800,7.44032373046875,9.737591743469238,0.30987054109573364,-0.02512463741004467
1659027033030993700,7.44999365234375,9.765109062194824,0.2847459018230438,-0.020338991656899452
1659027033040663600,7.45966357421875,9.766305923461914,0.29312077164649963,-0.015553346835076809
1659027033050333200,7.469333251953125,9.773484230041504,0.2871387302875519,-0.02153540402650833
1659027033060003000,7.479003173828125,9.772287368774414,0.259621262550354,-0.01196411345154047
1659027033069672700,7.488672607421875,9.774680137634277,0.27038896083831787,-0.010767702013254166
1659027033079342300,7.49834228515625,9.795019149780273,0.2883351147174835,0
1659027033089012200,7.50801220703125,9.780662536621094,0.3026920557022095,0.02632104977965355
1659027033098682000,7.51768212890625,9.753145217895508,0.30628129839897156,0.02273181453347206
1659027033108351700,7.527351806640625,9.774680137634277,0.3074777126312256,0.03469592705368996
1659027033118021400,7.537021484375,9.828518867492676,0.3086741268634796,0.02751746028661728
1659027033127691300,7.546691162109375,9.821340560913086,0.3361915946006775,0.0323031060397625
1659027033137361000,7.55636083984375,9.824930191040039,0.32303106784820557,0.03469592705368996
1659027033147030800,7.56603076171875,9.81655502319336,0.3194418251514435,0.02392822690308094
1659027033156700700,7.57570068359375,9.791430473327637,0.31465616822242737,0.017946170642971992
1659027033166370300,7.585370361328125,9.820143699645996,0.3026920557022095,-0.004785645287483931
1659027033176040000,7.5950400390625,9.811769485473633,0.30149564146995544,-0.007178467698395252
1659027033185709800,7.604709716796875,9.814162254333496,0.3086741268634796,-0.005982056725770235
1659027033195379500,7.61437939453125,9.817750930786133,0.3074777126312256,-0.02512463741004467
1659027033205049300,7.62404931640625,9.79262638092041,0.3086741268634796,-0.02751746028661728
1659027033214719000,7.633718994140625,9.795019149780273,0.3074777126312256,-0.04546362906694412
1659027033224388900,7.643388916015625,9.797411918640137,0.31106695532798767,-0.039481572806835175
1659027033234058500,7.65305859375,9.822537422180176,0.3026920557022095,-0.03469592705368996
1659027033243728400,7.662728271484375,9.829715728759766,0.3158525824546814,-0.0323031060397625
1659027033253398000,7.67239794921875,9.775876998901367,0.3086741268634796,-0.04666004329919815
1659027033263068000,7.68206787109375,10.080962181091309,0.363709032535553,-0.02632104977965355
1659027033272737500,7.691737548828125,9.717252731323242,0.3326023519039154,-0.02751746028661728
1659027033282407400,7.701407470703125,9.643074989318848,0.3206382393836975,-0.016749758273363113
1659027033292077000,7.7110771484375,9.53659439086914,0.2799602448940277,-0.010767702013254166
1659027033301747000,7.720746826171875,9.832108497619629,0.24646073579788208,-0.0023928226437419653
1659027033311416600,7.73041650390625,9.868000984191895,0.24885354936122894,-0.007178467698395252
1659027033321086500,7.74008642578125,9.876375198364258,0.27038896083831787,0.02751746028661728
1659027033330756000,7.749756103515625,9.879964828491211,0.30987054109573364,0.016749758273363113
1659027033340426000,7.759426025390625,9.7938232421875,0.33738797903060913,0.03349951654672623
1659027033350095600,7.769095703125,9.76391315460205,0.3565305769443512,0.0526420995593071
1659027033359765500,7.778765625,9.755537986755371,0.33379876613616943,0.03469592705368996
1659027033369435100,7.78843505859375,9.616754531860352,0.2919243574142456,0.038285162299871445
1659027033379105000,7.79810498046875,9.573683738708496,0.2548356056213379,0.0323031060397625
1659027033388774700,7.807774658203125,9.873982429504395,0.2476571500301361,0.019142581149935722
1659027033398444300,7.8174443359375,9.970891952514648,0.28115665912628174,0.02871387079358101
1659027033408114200,7.8271142578125,9.938589096069336,0.3074777126312256,0.04187439754605293
1659027033417784000,7.8367841796875,9.856036186218262,0.32542386651039124,0.03349951654672623
1659027033427453700,7.84645361328125,9.682557106018066,0.3122633695602417,0.035892341285943985
1659027033437123600,7.85612353515625,9.66939640045166,0.2919243574142456,0.009571290574967861
1659027033446793200,7.865793212890625,9.854840278625488,0.30628129839897156,-0.007178467698395252
1659027033456462800,7.875462890625,9.853643417358398,0.2847459018230438,-0.010767702013254166
1659027033466132700,7.8851328125,9.821340560913086,0.3026920557022095,-0.029910283163189888
1659027033475802600,7.894802734375,9.818947792053223,0.3326023519039154,-0.02392822690308094
1659027033485472300,7.90447216796875,9.795019149780273,0.33499518036842346,-0.02871387079358101
1659027033495142000,7.914141845703125,9.765109062194824,0.3290131092071533,-0.02392822690308094
1659027033504811800,7.923811767578125,9.783055305480957,0.2883351147174835,-0.03349951654672623
1659027033514481400,7.9334814453125,9.784252166748047,0.25004997849464417,-0.04666004329919815
1659027033524151300,7.9431513671875,9.76989459991455,0.23688943684101105,-0.031106693670153618
1659027033533821200,7.9528212890625,9.817750930786133,0.25722843408584595,-0.02512463741004467
1659027033543490800,7.96249072265625,9.761520385742188,0.28594231605529785,-0.015553346835076809
1659027033553160400,7.972160400390625,9.725627899169922,0.3038884699344635,-0.02273181453347206
1659027033562830300,7.981830322265625,9.69212818145752,0.33738797903060913,-0.020338991656899452
1659027033572500000,7.9915,9.79262638092041,0.3242274820804596,0.0011964113218709826
1659027033582169900,8.001169921875,9.77707290649414,0.2991028428077698,-0.005982056725770235
1659027033591839700,8.01083984375,9.884750366210938,0.2871387302875519,0.01196411345154047
1659027033601509400,8.02050927734375,9.827322959899902,0.30149564146995544,0.013160524889826775
1659027033611179000,8.030178955078124,9.821340560913086,0.3158525824546814,0.013160524889826775
1659027033620849000,8.039848876953124,9.774680137634277,0.32542386651039124,0.019142581149935722
1659027033630518800,8.049518798828124,9.755537986755371,0.3397808074951172,0.038285162299871445
1659027033640188400,8.0591884765625,9.772287368774414,0.3565305769443512,0.039481572806835175
1659027033649858000,8.068858154296874,9.77109146118164,0.3278166949748993,0.038285162299871445
1659027033659528000,8.07852783203125,9.774680137634277,0.3122633695602417,0.02273181453347206
1659027033669197600,8.088197509765624,9.828518867492676,0.28953152894973755,0.039481572806835175
1659027033678867500,8.097867431640625,9.875179290771484,0.2715853750705719,0.02632104977965355
1659027033688537300,8.107537353515625,9.91825008392334,0.2727817893028259,0.010767702013254166
1659027033698207000,8.11720703125,9.938589096069336,0.2919243574142456,0.008374879136681557
1659027033707876600,8.126876708984375,9.724431037902832,0.30987054109573364,0.01196411345154047
1659027033717546500,8.13654638671875,9.723235130310059,0.34576287865638733,0.016749758273363113
1659027033727216000,8.146216064453125,9.747162818908691,0.3481557071208954,0
1659027033736886000,8.155885986328125,9.81655502319336,0.32183465361595154,-0.0023928226437419653
1659027033746555600,8.1655556640625,9.833304405212402,0.2907279431819916,-0.010767702013254166
1659027033756225500,8.1752255859375,9.790233612060547,0.29312077164649963,-0.015553346835076809
1659027033765895200,8.184895263671875,9.761520385742188,0.30628129839897156,-0.02632104977965355
1659027033775565000,8.19456494140625,9.747162818908691,0.28235307335853577,-0.02273181453347206
1659027033785234700,8.204234619140625,9.753145217895508,0.2871387302875519,-0.016749758273363113
1659027033794904600,8.213904541015625,9.750752449035645,0.275174617767334,-0.020338991656899452
1659027033804574200,8.22357421875,9.745966911315918,0.2632105052471161,-0.008374879136681557
1659027033814244000,8.233244140625,9.77109146118164,0.26440688967704773,-0.016749758273363113
1659027033823913700,8.242913818359375,9.78544807434082,0.26440688967704773,0.0023928226437419653
1659027033833583600,8.25258349609375,9.80219841003418,0.2799602448940277,-0.009571290574967861
1659027033843253200,8.262253173828125,9.82373332977295,0.30628129839897156,0.005982056725770235
1659027033852923100,8.271923095703125,9.821340560913086,0.33499518036842346,0.029910283163189888
1659027033862592800,8.2815927734375,9.820143699645996,0.3529413342475891,0.017946170642971992
1659027033872262700,8.2912626953125,9.810572624206543,0.3529413342475891,0.02871387079358101
1659027033881932300,8.300932373046875,9.817750930786133,0.35533416271209717,0.02153540402650833
1659027033891602200,8.310602294921875,9.859625816345215,0.3326023519039154,0.0011964113218709826
1659027033901271800,8.320271728515625,9.875179290771484,0.3242274820804596,0.02751746028661728
1659027033910941700,8.329941650390625,9.798608779907227,0.3194418251514435,0.010767702013254166
1659027033920611300,8.339611328125,9.741181373596191,0.2991028428077698,-0.003589233849197626
1659027033930281200,8.34928125,9.719645500183105,0.2883351147174835,-0.009571290574967861
1659027033939950800,8.358950927734375,9.762716293334961,0.28235307335853577,0.004785645287483931
1659027033949620700,8.368620849609375,9.818947792053223,0.2632105052471161,-0.004785645287483931
1659027033959290400,8.378290283203125,9.839286804199219,0.2787638306617737,-0.013160524889826775
1659027033968960300,8.387960205078125,9.82373332977295,0.26919254660606384,-0.004785645287483931
1659027033978630000,8.3976298828125,9.789037704467773,0.2847459018230438,-0.0011964113218709826
1659027033988299800,8.4072998046875,9.784252166748047,0.3026920557022095,0.0011964113218709826
1659027033997969400,8.416969482421875,9.747162818908691,0.32542386651039124,-0.003589233849197626
1659027034007639300,8.426639404296875,9.766305923461914,0.3290131092071533,-0.019142581149935722
1659027034017309000,8.436308837890625,9.806983947753906,0.33738797903060913,-0.02153540402650833
1659027034026978600,8.445978515625,9.877572059631348,0.3278166949748993,-0.02273181453347206
1659027034036648400,8.4556484375,9.866804122924805,0.31465616822242737,-0.010767702013254166
1659027034046318300,8.465318359375,9.833304405212402,0.31106695532798767,-0.02273181453347206
1659027034055988000,8.474988037109375,9.779465675354004,0.28953152894973755,-0.009571290574967861
1659027034065657900,8.484657958984375,9.735198974609375,0.2763710021972656,-0.005982056725770235
1659027034075327500,8.494327392578125,9.725627899169922,0.2835494875907898,-0.0023928226437419653
1659027034084997000,8.5039970703125,9.772287368774414,0.2799602448940277,-0.008374879136681557
1659027034094667000,8.5136669921875,9.79262638092041,0.28953152894973755,0
1659027034104337000,8.5233369140625,9.838089942932129,0.2907279431819916,0.015553346835076809
1659027034114006500,8.533006591796875,9.814162254333496,0.2967100143432617,0.01196411345154047
1659027034123676200,8.54267626953125,9.838089942932129,0.31824541091918945,0
1659027034133346000,8.552345947265625,9.821340560913086,0.3445664644241333,0.009571290574967861
1659027034143016000,8.562015869140625,9.834501266479492,0.33499518036842346,0.019142581149935722
1659027034152685600,8.571685546875,9.857233047485352,0.3326023519039154,0.009571290574967861
1659027034162355500,8.58135546875,9.851250648498535,0.35054850578308105,0.003589233849197626
1659027034172025000,8.591025146484375,9.822537422180176,0.3361915946006775,0.0023928226437419653
1659027034181694700,8.60069482421875,9.798608779907227,0.3194418251514435,0.010767702013254166
1659027034191364600,8.610364501953125,9.766305923461914,0.2991028428077698,-0.0023928226437419653
1659027034201034500,8.620034423828125,9.749555587768555,0.28594231605529785,-0.005982056725770235
1659027034210704100,8.6297041015625,9.745966911315918,0.2667997181415558,0.01196411345154047
1659027034220374000,8.6393740234375,9.747162818908691,0.25004997849464417,-0.0023928226437419653
1659027034230043600,8.649043701171875,9.717252731323242,0.25004997849464417,-0.004785645287483931
1659027034239713300,8.65871337890625,9.705288887023926,0.24047867953777313,-0.005982056725770235
1659027034249383200,8.668383056640625,9.724431037902832,0.2548356056213379,0.0011964113218709826
1659027034259053000,8.678052978515625,9.77826976776123,0.26201409101486206,0.01196411345154047
1659027034268722700,8.68772265625,9.828518867492676,0.2632105052471161,0.008374879136681557
1659027034278392300,8.697392333984375,9.859625816345215,0.2991028428077698,0.017946170642971992
1659027034288062200,8.707062255859375,9.853643417358398,0.32303106784820557,0.0023928226437419653
1659027034297732000,8.716732177734375,9.81535816192627,0.3433700501918793,0.008374879136681557
1659027034307401700,8.726401611328125,9.7998046875,0.3445664644241333,0.02153540402650833
1659027034317071600,8.736071533203125,9.796216011047363,0.33499518036842346,0.01196411345154047
1659027034326741200,8.7457412109375,9.787840843200684,0.3361915946006775,0.003589233849197626
1659027034336411000,8.755410888671875,9.798608779907227,0.3206382393836975,0
1659027034346080800,8.765080810546875,9.80100154876709,0.3086741268634796,-0.005982056725770235
1659027034355750700,8.774750732421875,9.804591178894043,0.28594231605529785,-0.0023928226437419653
1659027034365420300,8.784420166015625,9.78664493560791,0.2667997181415558,0.0023928226437419653
1659027034375090000,8.79408984375,9.790233612060547,0.26201409101486206,-0.005982056725770235
1659027034384759800,8.803759765625,9.78544807434082,0.2548356056213379,-0.008374879136681557
1659027034394429700,8.8134296875,9.780662536621094,0.2763710021972656,-0.01196411345154047
1659027034404099300,8.823099365234375,9.772287368774414,0.28953152894973755,-0.003589233849197626
1659027034413769200,8.832769287109375,9.78544807434082,0.2991028428077698,-0.008374879136681557
1659027034423438800,8.84243896484375,9.810572624206543,0.3206382393836975,0.008374879136681557
1659027034433108500,8.8521083984375,9.81535816192627,0.33020952343940735,0
1659027034442778400,8.8617783203125,9.817750930786133,0.3361915946006775,0.0011964113218709826
1659027034452448300,8.8714482421875,9.81655502319336,0.32662028074264526,0.017946170642971992
1659027034462118000,8.881117919921875,9.81535816192627,0.31106695532798767,0.003589233849197626
1659027034471787500,8.89078759765625,9.80100154876709,0.29312077164649963,0.01196411345154047
1659027034481457400,8.90045751953125,9.791430473327637,0.28235307335853577,-0.009571290574967861
1659027034491127000,8.910126953125,9.754341125488281,0.2584248483181,0.003589233849197626
1659027034500797000,8.919796875,9.742377281188965,0.2584248483181,-0.008374879136681557
1659027034510466800,8.929466796875,9.741181373596191,0.2632105052471161,0.0023928226437419653
1659027034520136400,8.939136474609375,9.76391315460205,0.259621262550354,-0.017946170642971992
1659027034529806000,8.94880615234375,9.783055305480957,0.275174617767334,0.010767702013254166
1659027034539476000,8.95847607421875,9.784252166748047,0.29312077164649963,-0.01196411345154047
1659027034549145900,8.968145751953125,9.797411918640137,0.3002992272377014,-0.0011964113218709826
1659027034558815500,8.9778154296875,9.82373332977295,0.32183465361595154,-0.008374879136681557
1659027034568485000,8.987485107421875,9.840482711791992,0.33738797903060913,-0.013160524889826775
1659027034578155000,8.997155029296875,9.833304405212402,0.349352091550827,-0.013160524889826775
1659027034587824600,9.00682470703125,9.822537422180176,0.3433700501918793,-0.010767702013254166
1659027034597494500,9.01649462890625,9.834501266479492,0.32183465361595154,-0.005982056725770235
1659027034607164400,9.026164306640625,9.858428955078125,0.3074777126312256,-0.014356935396790504
1659027034616834000,9.035833984375,9.844072341918945,0.3086741268634796,0.0023928226437419653
1659027034626503700,9.045503662109375,9.832108497619629,0.2955136001110077,-0.0011964113218709826
1659027034636173600,9.055173583984375,9.780662536621094,0.2919243574142456,-0.010767702013254166
1659027034645843500,9.064843505859375,9.76989459991455,0.2883351147174835,0.007178467698395252
1659027034655513000,9.07451318359375,9.742377281188965,0.2679961323738098,-0.016749758273363113
1659027034665182700,9.0841826171875,9.745966911315918,0.2715853750705719,-0.003589233849197626
1659027034674852600,9.0938525390625,9.754341125488281,0.2584248483181,-0.015553346835076809
1659027034684522200,9.103522216796875,9.790233612060547,0.275174617767334,-0.01196411345154047
1659027034694192000,9.113192138671875,9.795019149780273,0.2835494875907898,-0.007178467698395252
1659027034703862000,9.122862060546876,9.827322959899902,0.2967100143432617,-0.014356935396790504
1659027034713531600,9.13253173828125,9.762716293334961,0.30149564146995544,0.0023928226437419653
1659027034723201300,9.142201171875,9.77707290649414,0.3086741268634796,0.01196411345154047
1659027034732871200,9.15187109375,9.80937671661377,0.3122633695602417,0.029910283163189888
1659027034742541000,9.161541015625,9.827322959899902,0.3170489966869354,0.013160524889826775
1659027034752210700,9.171210693359376,9.80937671661377,0.30628129839897156,0.020338991656899452
1659027034761880600,9.180880615234376,9.761520385742188,0.3170489966869354,0.02871387079358101
1659027034771550200,9.19055029296875,9.76391315460205,0.2907279431819916,0.029910283163189888
1659027034781219800,9.2002197265625,9.773484230041504,0.3074777126312256,0.0323031060397625
1659027034790889700,9.2098896484375,9.78664493560791,0.2967100143432617,0.02512463741004467
1659027034800559600,9.2195595703125,9.76391315460205,0.2847459018230438,0.035892341285943985
1659027034810229200,9.229229248046876,9.77109146118164,0.2835494875907898,0.03469592705368996
1659027034819899000,9.23889892578125,9.80219841003418,0.28235307335853577,0.02392822690308094
1659027034829568800,9.24856884765625,9.826126098632812,0.2847459018230438,0.02392822690308094
1659027034839238700,9.25823876953125,9.832108497619629,0.3038884699344635,0.016749758273363113
1659027034848908300,9.267908203125,9.812965393066406,0.31824541091918945,0.009571290574967861
1659027034858578200,9.277578125,9.817750930786133,0.32542386651039124,-0.0011964113218709826
1659027034868247800,9.287247802734376,9.80100154876709,0.32183465361595154,-0.010767702013254166
1659027034877917400,9.29691748046875,9.797411918640137,0.3206382393836975,-0.007178467698395252
1659027034887587300,9.30658740234375,9.795019149780273,0.3242274820804596,-0.02751746028661728
1659027034897257200,9.31625732421875,9.80219841003418,0.29312077164649963,-0.02632104977965355
1659027034906926800,9.3259267578125,9.79262638092041,0.2919243574142456,-0.02392822690308094
1659027034916596500,9.335596435546876,9.76391315460205,0.2787638306617737,-0.02871387079358101
1659027034926266400,9.345266357421876,9.772287368774414,0.2715853750705719,-0.038285162299871445
1659027034935936300,9.354936279296876,9.761520385742188,0.25004997849464417,-0.04426721855998039
1659027034945606000,9.36460595703125,9.773484230041504,0.2512463629245758,-0.02153540402650833
1659027034955275800,9.37427587890625,9.781859397888184,0.26560330390930176,-0.02392822690308094
1659027034964945400,9.3839453125,9.803394317626953,0.28115665912628174,-0.015553346835076809
1659027034974615000,9.393614990234376,9.81655502319336,0.29790642857551575,0.004785645287483931
1659027034984285000,9.403284912109376,9.835697174072266,0.3278166949748993,0.0023928226437419653
1659027034993954800,9.412954833984376,9.858428955078125,0.35413774847984314,0.010767702013254166
1659027035003624400,9.42262451171875,9.848857879638672,0.34217363595962524,0.02512463741004467
1659027035013294000,9.432294189453126,9.82373332977295,0.34695929288864136,0.02153540402650833
1659027035022964000,9.4419638671875,9.7938232421875,0.33858439326286316,0.02751746028661728
1659027035032633900,9.4516337890625,9.798608779907227,0.31824541091918945,0.010767702013254166
1659027035042303500,9.461303466796876,9.80817985534668,0.31824541091918945,0.016749758273363113
1659027035051973400,9.470973388671876,9.840482711791992,0.2991028428077698,0.017946170642971992
1659027035061643000,9.48064306640625,9.827322959899902,0.27397820353507996,0.016749758273363113
1659027035071312600,9.490312744140626,9.797411918640137,0.2787638306617737,0.02632104977965355
1659027035080982500,9.499982421875,9.748359680175781,0.28115665912628174,0.016749758273363113
1659027035090652400,9.50965234375,9.731609344482422,0.2763710021972656,-0.0023928226437419653
1659027035100322000,9.519322021484374,9.731609344482422,0.2763710021972656,-0.003589233849197626
1659027035109991700,9.52899169921875,9.760323524475098,0.28115665912628174,0.0023928226437419653
1659027035119661600,9.53866162109375,9.804591178894043,0.29312077164649963,-0.005982056725770235
1659027035129331500,9.54833154296875,9.854840278625488,0.2955136001110077,-0.0023928226437419653
1659027035139001000,9.5580009765625,9.868000984191895,0.3026920557022095,-0.015553346835076809
1659027035148671000,9.5676708984375,9.863214492797852,0.3122633695602417,-0.009571290574967861
1659027035158340600,9.577340576171874,9.827322959899902,0.32183465361595154,-0.017946170642971992
1659027035168010500,9.587010498046874,9.76989459991455,0.32662028074264526,-0.017946170642971992
1659027035177680100,9.59668017578125,9.761520385742188,0.3206382393836975,-0.02392822690308094
1659027035187350000,9.60635009765625,9.751948356628418,0.3002992272377014,-0.019142581149935722
1659027035197019600,9.61601953125,9.789037704467773,0.2955136001110077,-0.02153540402650833
1659027035206689500,9.625689453125,9.790233612060547,0.28235307335853577,-0.02871387079358101
1659027035216359200,9.635359130859374,9.78664493560791,0.28115665912628174,-0.02512463741004467
1659027035226029000,9.645029052734374,9.76989459991455,0.28594231605529785,-0.01196411345154047
1659027035235698700,9.65469873046875,9.757930755615234,0.28953152894973755,-0.0011964113218709826
1659027035245368600,9.66436865234375,9.765109062194824,0.27756741642951965,-0.01196411345154047
1659027035255038200,9.6740380859375,9.765109062194824,0.29312077164649963,0.007178467698395252
1659027035264708000,9.6837080078125,9.80100154876709,0.3074777126312256,0.016749758273363113
1659027035274377700,9.693377685546874,9.80937671661377,0.3038884699344635,0.015553346835076809
1659027035284047600,9.703047607421874,9.7998046875,0.32303106784820557,0.019142581149935722
1659027035293717200,9.71271728515625,9.775876998901367,0.31465616822242737,0.017946170642971992
1659027035303387100,9.72238720703125,9.7938232421875,0.30628129839897156,0.016749758273363113
1659027035313056800,9.732056884765624,9.818947792053223,0.32542386651039124,0.035892341285943985
1659027035322726700,9.7417265625,9.832108497619629,0.30508488416671753,0.02871387079358101
1659027035332396300,9.751396240234374,9.826126098632812,0.3026920557022095,0.014356935396790504
1659027035342066200,9.761066162109374,9.805787086486816,0.2787638306617737,0.010767702013254166
1659027035351735800,9.77073583984375,9.784252166748047,0.27397820353507996,0.013160524889826775
1659027035361405700,9.78040576171875,9.744770050048828,0.2679961323738098,0.005982056725770235
1659027035371075300,9.790075439453124,9.734002113342285,0.2871387302875519,0.008374879136681557
1659027035380745200,9.7997451171875,9.755537986755371,0.26919254660606384,0.009571290574967861
1659027035390414800,9.809414794921874,9.78544807434082,0.28235307335853577,-0.004785645287483931
1659027035400084700,9.819084716796874,9.811769485473633,0.2727817893028259,-0.017946170642971992
1659027035409754400,9.82875439453125,9.7998046875,0.31465616822242737,-0.008374879136681557
1659027035419424300,9.83842431640625,9.796216011047363,0.3026920557022095,-0.014356935396790504
1659027035429094000,9.848093994140624,9.798608779907227,0.31465616822242737,-0.020338991656899452
1659027035438763800,9.857763671875,9.79262638092041,0.32303106784820557,-0.01196411345154047
1659027035448433400,9.867433349609374,9.817750930786133,0.31465616822242737,-0.008374879136681557
1659027035458103300,9.877103271484375,9.818947792053223,0.32183465361595154,-0.020338991656899452
1659027035467773000,9.88677294921875,9.822537422180176,0.31824541091918945,-0.0011964113218709826
1659027035477442800,9.89644287109375,9.80100154876709,0.3206382393836975,-0.0023928226437419653
1659027035487112400,9.906112548828125,9.77826976776123,0.2967100143432617,-0.003589233849197626
1659027035496782300,9.9157822265625,9.766305923461914,0.2871387302875519,0.007178467698395252
1659027035506452000,9.925451904296875,9.761520385742188,0.2835494875907898,0.004785645287483931
1659027035516121900,9.935121826171875,9.773484230041504,0.2835494875907898,-0.005982056725770235
1659027035525791500,9.94479150390625,9.742377281188965,0.28235307335853577,-0.004785645287483931
1659027035535461400,9.95446142578125,9.747162818908691,0.2763710021972656,0.0011964113218709826
1659027035545131000,9.964131103515625,9.779465675354004,0.27756741642951965,0.01196411345154047
1659027035554801000,9.97380078125,9.804591178894043,0.28594231605529785,0.01196411345154047
1659027035564470800,9.983470703125,9.796216011047363,0.2787638306617737,0.02632104977965355
1659027035574140400,9.993140380859375,9.762716293334961,0.2991028428077698,0.005982056725770235
1659027035583810000,10.00281005859375,9.804591178894043,0.2919243574142456,0
1659027035593480000,10.01247998046875,9.81535816192627,0.30508488416671753,0.02751746028661728
1659027035603149800,10.02214990234375,9.826126098632812,0.3038884699344635,0.02273181453347206
1659027035612819500,10.0318193359375,9.805787086486816,0.3170489966869354,0.016749758273363113
1659027035622489000,10.041489013671875,9.77109146118164,0.3026920557022095,0.016749758273363113
1659027035632159000,10.051158935546875,9.78664493560791,0.31345975399017334,0
1659027035641828600,10.06082861328125,9.830911636352539,0.32542386651039124,0.01196411345154047
1659027035651498500,10.07049853515625,9.842875480651855,0.32183465361595154,-0.0011964113218709826
1659027035661168400,10.08016845703125,9.810572624206543,0.30628129839897156,-0.0011964113218709826
1659027035670838000,10.089838134765625,9.781859397888184,0.31106695532798767,-0.010767702013254166
1659027035680507600,10.099507568359375,9.805787086486816,0.32303106784820557,-0.013160524889826775
1659027035690177500,10.109177490234375,9.811769485473633,0.3122633695602417,-0.010767702013254166
1659027035699847400,10.118847412109375,9.81535816192627,0.32662028074264526,-0.003589233849197626
1659027035709517000,10.12851708984375,9.790233612060547,0.31345975399017334,-0.017946170642971992
1659027035719186700,10.138186767578125,9.7998046875,0.30987054109573364,-0.015553346835076809
1659027035728856600,10.147856689453125,9.804591178894043,0.3314059376716614,-0.01196411345154047
1659027035738526500,10.1575263671875,9.790233612060547,0.3122633695602417,-0.014356935396790504
1659027035748196000,10.167196044921875,9.779465675354004,0.3074777126312256,-0.031106693670153618
1659027035757866000,10.176865966796875,9.789037704467773,0.2883351147174835,-0.01196411345154047
1659027035767535600,10.18653564453125,9.790233612060547,0.2919243574142456,-0.009571290574967861
1659027035777205500,10.19620556640625,9.79262638092041,0.2847459018230438,0.0011964113218709826
1659027035786875100,10.205875244140625,9.791430473327637,0.2907279431819916,-0.0023928226437419653
1659027035796545000,10.215544921875,9.791430473327637,0.2955136001110077,0.010767702013254166
1659027035806214700,10.225214599609375,9.7998046875,0.2883351147174835,0.003589233849197626
1659027035815884300,10.23488427734375,9.80100154876709,0.3002992272377014,0.013160524889826775
1659027035825554200,10.24455419921875,9.797411918640137,0.2955136001110077,0.02632104977965355
1659027035835224000,10.25422412109375,9.7938232421875,0.31465616822242737,0.02273181453347206
1659027035844893700,10.263893798828125,9.791430473327637,0.31465616822242737,0.015553346835076809
1659027035854563600,10.2735634765625,9.77826976776123,0.29790642857551575,0.02512463741004467
1659027035864233200,10.283233154296875,9.812965393066406,0.3122633695602417,0.020338991656899452
1659027035873903000,10.292903076171875,9.78544807434082,0.30149564146995544,0.019142581149935722
1659027035883572700,10.30257275390625,9.7938232421875,0.30628129839897156,0.01196411345154047
1659027035893242600,10.31224267578125,9.772287368774414,0.3026920557022095,0
1659027035902912300,10.321912353515625,9.7998046875,0.3170489966869354,0.010767702013254166
1659027035912582100,10.33158203125,9.80219841003418,0.30508488416671753,0
1659027035922251800,10.341251708984375,9.822537422180176,0.32303106784820557,-0.0023928226437419653
1659027035931921700,10.350921630859375,9.797411918640137,0.32183465361595154,0.003589233849197626
1659027035941591300,10.36059130859375,9.795019149780273,0.31345975399017334,-0.015553346835076809
1659027035951261200,10.37026123046875,9.789037704467773,0.30508488416671753,-0.02392822690308094
1659027035960930800,10.379930908203125,9.810572624206543,0.3170489966869354,-0.016749758273363113
1659027035970600700,10.3896005859375,9.810572624206543,0.3026920557022095,-0.02153540402650833
1659027035980270300,10.399270263671875,9.806983947753906,0.2991028428077698,-0.02273181453347206
1659027035989940200,10.408940185546875,9.804591178894043,0.3038884699344635,-0.02512463741004467
1659027035999609900,10.41860986328125,9.79262638092041,0.2991028428077698,-0.03349951654672623
1659027036009279700,10.42827978515625,9.7938232421875,0.30149564146995544,-0.016749758273363113
1659027036018949400,10.437949462890625,9.781859397888184,0.2919243574142456,-0.02392822690308094
1659027036028619300,10.447619384765625,9.767501831054688,0.2907279431819916,-0.02153540402650833
1659027036038289000,10.457288818359375,9.779465675354004,0.2955136001110077,-0.020338991656899452
1659027036047958800,10.466958740234375,9.78664493560791,0.2991028428077698,-0.016749758273363113
1659027036057628400,10.47662841796875,9.812965393066406,0.2991028428077698,-0.0023928226437419653
1659027036067298300,10.48629833984375,9.795019149780273,0.31465616822242737,0.008374879136681557
1659027036076968000,10.495968017578125,9.791430473327637,0.31465616822242737,0.014356935396790504
1659027036086637800,10.505637939453125,9.796216011047363,0.3158525824546814,0.015553346835076809
1659027036096307500,10.515307373046875,9.79262638092041,0.3074777126312256,0.016749758273363113
1659027036105977300,10.524977294921875,9.810572624206543,0.3194418251514435,0.016749758273363113
1659027036115647200,10.534647216796875,9.80219841003418,0.3206382393836975,0.029910283163189888
1659027036125316900,10.54431689453125,9.77826976776123,0.30628129839897156,0.015553346835076809
1659027036134986500,10.553986572265625,9.787840843200684,0.31106695532798767,0.02153540402650833
1659027036144656400,10.563656494140625,9.790233612060547,0.31824541091918945,0.010767702013254166
1659027036154326300,10.573326171875,9.791430473327637,0.31106695532798767,0.005982056725770235
1659027036163996000,10.582995849609375,9.77826976776123,0.3074777126312256,0.0023928226437419653
1659027036173665500,10.59266552734375,9.7998046875,0.3026920557022095,0.005982056725770235
1659027036183335400,10.60233544921875,9.795019149780273,0.3026920557022095,-0.014356935396790504
1659027036193005300,10.61200537109375,9.784252166748047,0.3122633695602417,0.004785645287483931
1659027036202675000,10.621675048828125,9.783055305480957,0.3122633695602417,-0.004785645287483931
1659027036212344800,10.6313447265625,9.78544807434082,0.3002992272377014,-0.010767702013254166
1659027036222014500,10.641014404296875,9.795019149780273,0.31106695532798767,-0.008374879136681557
1659027036231684000,10.65068408203125,9.797411918640137,0.30149564146995544,-0.015553346835076809
1659027036241354000,10.66035400390625,9.80219841003418,0.30149564146995544,-0.016749758273363113
1659027036251024000,10.67002392578125,9.789037704467773,0.30628129839897156,-0.02392822690308094
1659027036260693500,10.679693603515625,9.784252166748047,0.30149564146995544,-0.016749758273363113
1659027036270363100,10.689363037109375,9.797411918640137,0.3038884699344635,-0.035892341285943985
1659027036280033000,10.699032958984375,9.806983947753906,0.3002992272377014,-0.008374879136681557
1659027036289703000,10.708702880859375,9.79262638092041,0.3158525824546814,0.004785645287483931
1659027036299372500,10.71837255859375,9.7938232421875,0.31345975399017334,-0.013160524889826775
1659027036309042400,10.72804248046875,9.80100154876709,0.3122633695602417,-0.008374879136681557
1659027036318712000,10.737712158203125,9.795019149780273,0.3194418251514435,0.005982056725770235
1659027036328382000,10.7473818359375,9.780662536621094,0.3074777126312256,-0.0011964113218709826
1659027036338051600,10.757051513671875,9.781859397888184,0.3038884699344635,0.004785645287483931
1659027036347721500,10.766721435546875,9.80219841003418,0.30628129839897156,0.009571290574967861
1659027036357391000,10.77639111328125,9.811769485473633,0.30987054109573364,0.007178467698395252
1659027036367061000,10.78606103515625,9.80100154876709,0.31345975399017334,0.019142581149935722
1659027036376730600,10.795730712890625,9.784252166748047,0.3086741268634796,0.02512463741004467
1659027036386400500,10.805400390625,9.77707290649414,0.3170489966869354,0.007178467698395252
1659027036396070100,10.815070068359375,9.779465675354004,0.31345975399017334,0.013160524889826775
1659027036405740000,10.824739990234375,9.790233612060547,0.30149564146995544,0.02153540402650833
1659027036415409700,10.83440966796875,9.78664493560791,0.3038884699344635,0.008374879136681557
1659027036425079600,10.84407958984375,9.795019149780273,0.29312077164649963,0.02153540402650833
1659027036434749200,10.853749267578126,9.790233612060547,0.3038884699344635,0.0023928226437419653
1659027036444419000,10.863419189453126,9.789037704467773,0.30508488416671753,0.010767702013254166
1659027036454088700,10.873088623046876,9.803394317626953,0.29431718587875366,-0.003589233849197626
1659027036463758600,10.882758544921876,9.797411918640137,0.2907279431819916,-0.0011964113218709826
1659027036473428500,10.892428466796876,9.790233612060547,0.30149564146995544,-0.009571290574967861
1659027036483098000,10.90209814453125,9.789037704467773,0.28953152894973755,-0.013160524889826775
1659027036492767700,10.911767822265626,9.79262638092041,0.3002992272377014,0.0023928226437419653
1659027036502437600,10.921437744140626,9.806983947753906,0.32303106784820557,-0.008374879136681557
1659027036512107500,10.931107421875,9.795019149780273,0.31824541091918945,-0.0011964113218709826
1659027036521777200,10.940777099609376,9.814162254333496,0.3242274820804596,-0.02632104977965355
1659027036531446800,10.95044677734375,9.811769485473633,0.3170489966869354,0.0023928226437419653
1659027036541116700,10.96011669921875,9.806983947753906,0.32542386651039124,-0.005982056725770235
1659027036550786300,10.969786376953126,9.806983947753906,0.31106695532798767,-0.008374879136681557
1659027036560456200,10.979456298828126,9.804591178894043,0.3074777126312256,0.004785645287483931
1659027036570126000,10.9891259765625,9.80817985534668,0.3086741268634796,-0.007178467698395252
1659027036579795700,10.998795654296876,9.7938232421875,0.3122633695602417,-0.015553346835076809
1659027036589465300,11.00846533203125,9.789037704467773,0.30987054109573364,-0.009571290574967861
1659027036599135200,11.01813525390625,9.803394317626953,0.3074777126312256,-0.004785645287483931
1659027036608805000,11.02780517578125,9.79262638092041,0.31345975399017334,-0.016749758273363113
1659027036618474800,11.037474853515626,9.789037704467773,0.3026920557022095,-0.0023928226437419653
1659027036628144600,11.04714453125,9.76989459991455,0.2991028428077698,0.007178467698395252
1659027036637814300,11.056814208984376,9.795019149780273,0.3038884699344635,0.004785645287483931
1659027036647484200,11.066484130859376,9.795019149780273,0.3074777126312256,0.005982056725770235
1659027036657153800,11.07615380859375,9.806983947753906,0.31465616822242737,-0.0023928226437419653
1659027036666823700,11.08582373046875,9.7938232421875,0.30628129839897156,0.009571290574967861
1659027036676493300,11.095493408203126,9.791430473327637,0.2919243574142456,0.003589233849197626
1659027036686163200,11.1051630859375,9.791430473327637,0.3158525824546814,0.013160524889826775
1659027036695832800,11.114832763671876,9.780662536621094,0.2955136001110077,0.003589233849197626
1659027036705502700,11.124502685546876,9.784252166748047,0.30508488416671753,0
1659027036715172400,11.13417236328125,9.780662536621094,0.2991028428077698,0.013160524889826775
1659027036724842200,11.14384228515625,9.80219841003418,0.2991028428077698,0.0011964113218709826
1659027036734511900,11.153511962890626,9.790233612060547,0.30508488416671753,-0.0023928226437419653
1659027036744181800,11.163181640625,9.78664493560791,0.30987054109573364,-0.0023928226437419653
1659027036753851400,11.172851318359376,9.818947792053223,0.3026920557022095,0.010767702013254166
1659027036763521300,11.182521240234376,9.796216011047363,0.3194418251514435,-0.004785645287483931
1659027036773191000,11.19219091796875,9.798608779907227,0.3158525824546814,0
1659027036782860800,11.20186083984375,9.820143699645996,0.3242274820804596,-0.01196411345154047
1659027036792530400,11.211530517578124,9.7938232421875,0.3002992272377014,0.0011964113218709826
1659027036802200300,11.221200439453124,9.797411918640137,0.31824541091918945,0.003589233849197626
1659027036811870000,11.230869873046874,9.812965393066406,0.32183465361595154,-0.010767702013254166
1659027036821539800,11.240539794921874,9.810572624206543,0.3086741268634796,-0.02153540402650833
1659027036831209700,11.250209716796874,9.810572624206543,0.3074777126312256,-0.007178467698395252
1659027036840879400,11.25987939453125,9.7998046875,0.2919243574142456,-0.01196411345154047
1659027036850549000,11.269549072265624,9.783055305480957,0.29790642857551575,-0.008374879136681557
1659027036860219000,11.279218994140624,9.77707290649414,0.3002992272377014,-0.017946170642971992
1659027036869888800,11.288888671875,9.784252166748047,0.3074777126312256,-0.009571290574967861
1659027036879558400,11.298558349609374,9.806983947753906,0.3122633695602417,0.0011964113218709826
1659027036889228000,11.30822802734375,9.78664493560791,0.30149564146995544,-0.008374879136681557
1659027036898898000,11.31789794921875,9.798608779907227,0.30508488416671753,0.019142581149935722
1659027036908567800,11.32756787109375,9.754341125488281,0.28235307335853577,0.013160524889826775
1659027036918237400,11.337237548828124,9.737591743469238,0.3314059376716614,-0.005982056725770235
1659027036927907300,11.3469072265625,9.868000984191895,0.32183465361595154,0.0023928226437419653
1659027036937577000,11.356576904296874,9.829715728759766,0.30628129839897156,-0.0011964113218709826
1659027036947246800,11.366246826171874,9.810572624206543,0.31106695532798767,-0.0011964113218709826
1659027036956916500,11.37591650390625,9.798608779907227,0.31465616822242737,0.005982056725770235
1659027036966586400,11.38558642578125,9.77109146118164,0.3397808074951172,0.005982056725770235
1659027036976256000,11.395256103515624,9.790233612060547,0.3074777126312256,-0.009571290574967861
